,userAcceleration.x,userAcceleration.y,userAcceleration.z
0,0.063613,-0.108457,-0.148334
1,-0.119548,-0.375528,-0.251358
2,-0.08777,-0.706395,-0.229662
3,0.078326,-0.928287,-0.308015
4,0.128692,-0.939903,-0.344854
5,0.117929,-1.107273,-0.340952
6,0.124192,-1.074966,-0.348457
7,0.131464,-1.001242,-0.319144
8,0.062561,-0.433452,0.282937
9,0.056336,-0.15228,0.276788
10,-0.023385,0.634183,0.120524
11,-0.083979,1.522664,0.647063
12,0.220646,1.048547,0.942356
13,0.060723,-0.206353,0.691655
14,0.20541,0.202109,-0.102025
15,-0.129446,0.634631,-0.383794
16,0.07444,0.83359,-0.828492
17,0.404737,0.658469,-0.115684
18,0.196522,0.000168,0.116388
19,-0.287377,-0.243172,-0.748878
20,-0.323324,-0.219842,-0.70566
21,-0.262184,-0.062083,-0.316558
22,0.114012,-0.253007,-0.142468
23,0.235734,-0.367982,-0.167869
24,0.414467,-0.541348,-0.203335
25,0.340557,-0.568428,-0.196456
26,0.26892,-0.566863,-0.098599
27,0.047826,-0.331573,-0.077228
28,-0.152692,-0.121328,-0.178414
29,-0.224641,-0.121049,-0.115418
30,-0.244816,-0.106539,-0.026588
31,-0.252945,0.496666,0.181114
32,-0.465354,0.156539,0.276739
33,-0.648288,0.221146,0.572905
34,-0.647756,0.491504,0.216348
35,-0.754729,0.469807,0.165733
36,-0.729391,0.537973,-0.085547
37,-0.32732,0.549216,-0.124161
38,-0.062765,0.433447,-0.158933
39,0.393197,0.161348,-0.159863
40,0.257803,0.405239,-0.168483
41,0.122409,0.658229,-0.285617
42,0.153089,0.659983,-0.332931
43,0.532089,0.710507,-0.039352
44,0.645801,0.415825,-0.017446
45,0.569454,0.202898,-0.0569
46,0.062457,-0.262312,-0.18956
47,-0.156409,-0.533142,-0.266032
48,-0.171094,-1.00956,-0.218559
49,0.022019,-0.992181,-0.289387
50,0.130503,-0.901017,-0.222568
51,0.191731,-0.816269,-0.278751
52,0.257649,-0.84969,-0.210528
53,0.223893,-0.818238,-0.133947
54,0.028642,-0.442386,0.158728
55,-0.168072,0.047457,0.353469
56,-0.003124,0.854863,0.505579
57,-0.026413,1.260782,0.53904
58,0.135336,0.545916,0.774319
59,0.513502,0.340803,0.299991
60,0.174591,1.433874,-0.236698
61,0.074678,1.026532,-0.600047
62,0.22206,-0.079293,-0.60939
63,0.217366,-0.372762,0.07864
64,-0.286208,0.09485,-0.274608
65,-0.292372,0.113102,-0.630378
66,-0.02099,0.084475,-0.211452
67,0.105006,-0.306386,-0.116029
68,0.175365,-0.545507,-0.046527
69,0.186132,-0.612741,-0.169767
70,0.229915,-0.652141,-0.249835
71,0.250985,-0.600713,-0.200141
72,0.15915,-0.265305,0.02568
73,0.115429,-0.231257,0.047481
74,-0.024325,-0.297436,-0.07683
75,-0.107861,-0.464823,-0.062249
76,-0.139081,-0.175234,0.179883
77,-0.260225,0.38573,0.147679
78,-0.52421,0.310311,0.319465
79,-0.681092,0.38743,0.341256
80,-0.507972,0.667111,0.220592
81,-0.744257,0.601725,0.384781
82,-0.669654,0.451417,0.196033
83,-0.68295,0.530222,-0.165897
84,-0.215092,0.167763,-0.118576
85,0.161447,0.191357,-0.280605
86,0.156181,0.653029,-0.317117
87,0.393284,1.026106,-0.2035
88,0.501628,0.906148,-0.116616
89,0.612893,0.660048,-0.019115
90,0.330083,0.296125,0.008968
91,0.022701,-0.007543,-0.021566
92,-0.183688,-0.453883,-0.232427
93,-0.139687,-0.745815,-0.302243
94,-0.028537,-1.044404,-0.359616
95,0.23244,-0.985231,-0.320812
96,0.247363,-0.935154,-0.315844
97,0.277606,-0.927804,-0.28364
98,0.222692,-0.794597,-0.120743
99,0.076331,-0.605396,-0.055379
100,-0.036095,-0.462484,0.077024
101,-0.02635,0.15864,0.314397
102,-0.016491,1.253162,0.221704
103,0.044032,1.078339,0.628589
104,-0.003737,0.032012,0.904955
105,0.404349,0.578427,0.1827
106,0.130624,0.891873,-0.022322
107,0.026684,0.60555,-0.627113
108,0.112598,0.261552,-0.377306
109,0.058072,0.175502,0.097739
110,0.121741,0.125418,-0.610578
111,-0.103146,0.381763,-0.425574
112,-0.061943,-0.005367,-0.481134
113,0.0522,-0.181887,-0.339276
114,0.208214,-0.32115,-0.161833
115,0.265683,-0.444343,-0.187126
116,0.233494,-0.462615,-0.217193
117,0.248619,-0.60152,-0.209939
118,0.175846,-0.495859,-0.026788
119,0.135265,-0.473356,0.06675
120,0.008765,-0.316215,-0.065787
121,-0.176145,-0.357046,-0.024475
122,-0.258809,-0.126616,0.185455
123,-0.271209,0.229603,0.144893
124,-0.245452,0.180938,0.37843
125,-0.534423,0.50423,0.416531
126,-0.708679,0.6978,0.345389
127,-0.871009,0.626124,0.385597
128,-0.665707,0.885437,0.022511
129,-0.174469,0.643707,0.007223
130,-0.002987,0.269533,-0.089811
131,0.223437,0.27022,-0.263531
132,0.260666,0.635445,-0.233068
133,0.301971,0.92166,-0.048648
134,0.495558,0.832483,-0.027032
135,0.559546,0.517957,0.034862
136,0.262334,0.122793,-0.101467
137,-0.036107,-0.362274,-0.096889
138,-0.053394,-0.460111,-0.119728
139,-0.051245,-0.637192,-0.118258
140,0.177855,-0.99306,-0.3038
141,0.158391,-1.053698,-0.294858
142,0.138861,-1.020633,-0.300732
143,0.167151,-0.847201,-0.209982
144,0.169855,-0.698045,-0.016788
145,0.141156,-0.561325,0.06813
146,0.066575,-0.222285,0.349017
147,-0.123507,0.408523,0.404825
148,-0.244138,0.778393,0.299092
149,0.014468,0.710107,0.695993
150,0.100551,0.027351,0.852534
151,0.324118,0.640901,-0.040185
152,0.149515,0.652764,-0.044492
153,0.297715,0.262374,-0.577324
154,-0.00167,0.754508,-0.157234
155,-0.045659,0.391836,-0.201959
156,-0.200056,-0.117603,-0.410701
157,-0.052239,-0.180405,-0.319615
158,-0.000728,-0.330299,-0.280218
159,0.061862,-0.394385,-0.171482
160,0.077601,-0.549728,-0.025471
161,0.174783,-0.849735,-0.252418
162,0.264359,-0.887473,-0.278352
163,0.434228,-0.503971,-0.186947
164,0.406125,-0.172921,-0.153563
165,0.152219,-0.042611,0.027684
166,-0.109312,-0.037155,0.076995
167,-0.261035,-0.035234,0.100289
168,-0.316922,-0.041641,0.193087
169,-0.250767,0.366594,0.267714
170,-0.373692,0.569188,0.549033
171,-0.719303,0.621252,0.277799
172,-0.874868,0.600542,0.26659
173,-0.672643,0.838983,0.041619
174,-0.280262,0.508465,-0.056458
175,0.036005,0.244329,0.032682
176,0.325236,0.30625,0.116003
177,0.197456,0.556574,-0.223231
178,0.069231,0.685337,-0.201437
179,0.28438,0.838683,-0.043566
180,0.410003,0.817877,-0.067395
181,0.265295,0.273309,0.000132
182,0.100168,-0.100117,-0.10163
183,0.070656,-0.313586,-0.227631
184,0.176274,-1.046778,-0.273636
185,0.230877,-1.015372,-0.285795
186,0.078333,-0.805029,-0.2803
187,0.046689,-0.92212,-0.329037
188,0.203873,-0.925897,-0.225075
189,0.195469,-0.925258,-0.231195
190,0.147787,-0.477583,0.272453
191,-0.018304,-0.327791,0.430299
192,-0.096033,0.502856,0.425877
193,-0.327263,1.362183,0.359321
194,0.03992,0.763632,0.715207
195,0.104129,-0.075121,0.946669
196,0.523065,0.511239,0.233184
197,-0.024548,0.758675,-0.078676
198,-0.043656,0.432049,-0.868493
199,0.243825,0.345909,0.08627
200,-0.059177,-0.055266,-0.066276
201,-0.116936,-0.11104,-0.229435
202,-0.128076,-0.14678,-0.445184
203,-0.001554,-0.233475,-0.268015
204,0.090683,-0.334076,-0.252704
205,0.283257,-0.351105,-0.117552
206,0.391921,-0.513188,-0.15479
207,0.408702,-0.613394,-0.176229
208,0.231207,-0.519067,-0.128657
209,0.128431,-0.483246,-0.089808
210,0.025213,-0.373306,-0.20192
211,0.031243,-0.141783,-0.095721
212,0.001803,0.085983,0.229758
213,-0.107193,0.305737,0.361844
214,-0.668399,0.404436,0.438698
215,-0.817129,0.41912,0.710891
216,-0.880053,0.621809,0.233309
217,-1.096739,0.652927,0.389063
218,-0.626853,0.642269,-0.053319
219,-0.35392,0.406049,-0.045351
220,0.11128,0.105853,-0.254346
221,0.267144,0.566144,-0.176816
222,0.277747,0.92661,-0.272227
223,0.374814,0.844409,-0.414382
224,0.462666,0.714558,-0.115407
225,0.426325,0.498447,-0.012019
226,0.306144,0.319967,-0.023451
227,-0.050049,-0.266609,-0.105464
228,-0.094269,-0.427706,-0.169022
229,-0.027739,-0.845584,-0.168436
230,0.048931,-0.87909,-0.254231
231,0.062538,-0.853409,-0.302003
232,0.201955,-1.077268,-0.410095
233,0.305589,-1.041837,-0.40461
234,0.250291,-0.778218,-0.162153
235,0.112625,-0.434817,0.24795
236,0.154997,-0.08357,0.327511
237,0.228768,0.707039,-0.018589
238,-0.073402,1.430523,0.603412
239,-0.009167,0.581619,0.869361
240,0.221909,0.094233,0.421878
241,-0.237728,0.992215,0.148318
242,-0.226323,1.033527,-0.203191
243,0.10066,0.205351,-0.459281
244,0.254149,-0.106101,-0.271914
245,-0.311053,0.342829,-0.63175
246,-0.246167,0.518119,-0.144775
247,-0.102265,0.0384,-0.329519
248,-0.155492,-0.167818,-0.326432
249,0.02881,-0.482902,-0.178525
250,0.160242,-0.616714,-0.049116
251,0.327694,-0.830731,-0.156735
252,0.327452,-0.756021,-0.100417
253,0.178473,-0.524812,0.024398
254,0.131547,-0.423555,0.04182
255,0.144405,-0.244175,-0.081807
256,0.028509,-0.100693,-0.114855
257,-0.123859,0.092147,0.261728
258,-0.152996,0.271251,0.220175
259,-0.131323,0.176685,0.253681
260,-0.662138,0.446176,0.504219
261,-0.861704,0.588526,0.405845
262,-0.977819,0.646849,0.442076
263,-0.827162,0.707026,0.092817
264,-0.148712,0.429756,-0.018256
265,0.247405,0.259776,0.047926
266,0.200437,0.411852,-0.275294
267,0.049574,0.538977,-0.233188
268,0.098974,0.891917,-0.156066
269,0.372633,0.814274,0.064263
270,0.450577,0.609179,0.113327
271,0.453724,0.365078,0.105808
272,-0.116331,-0.399762,-0.089921
273,-0.090067,-0.386552,-0.121682
274,-0.140373,-1.009673,-0.285178
275,0.092395,-1.102808,-0.371841
276,0.167351,-1.110821,-0.388626
277,0.265545,-1.088687,-0.439236
278,0.417964,-0.750693,-0.062243
279,0.315386,-0.57619,0.121647
280,0.179447,-0.411841,0.280432
281,0.305566,-0.066134,0.287374
282,-0.020444,0.745836,0.223057
283,-0.345083,1.19218,0.67391
284,0.206526,0.363956,0.50109
285,0.321002,0.818125,0.129732
286,0.06071,1.49169,0.210844
287,-0.082492,0.598532,-0.249562
288,0.318247,-0.617041,-0.695354
289,0.217833,-0.207878,-0.213635
290,-0.251442,0.591,-0.544712
291,-0.295041,0.575879,-0.434576
292,-0.079994,-0.265561,-0.167605
293,-0.005969,-0.47525,-0.182151
294,0.198388,-0.673612,-0.063598
295,0.210706,-0.744906,-0.209162
296,0.218236,-0.73861,-0.20305
297,0.170117,-0.623753,-0.129326
298,0.215307,-0.477423,0.026211
299,0.202997,-0.451347,0.02416
300,-0.078694,-0.227349,-0.004468
301,-0.32123,-0.064815,0.169776
302,-0.332533,0.22798,0.307856
303,-0.146251,0.138424,0.127754
304,-0.465206,0.281882,0.373467
305,-0.687116,0.793559,0.401908
306,-0.591172,0.890186,0.295195
307,-0.744433,0.849796,0.102239
308,-0.442875,0.584854,0.091159
309,-0.084085,0.262204,0.131298
310,0.263492,0.308225,-0.309587
311,0.131619,0.696095,-0.464607
312,0.324266,0.848174,-0.08096
313,0.4519,0.892164,-0.380435
314,0.51857,0.60302,-0.047899
315,0.486683,0.415603,0.030467
316,0.127797,-0.155899,-0.041062
317,0.053788,-0.653295,-0.10544
318,0.029299,-0.881832,-0.118844
319,0.087232,-1.080887,-0.248654
320,0.082018,-0.933674,-0.275581
321,0.099762,-0.952197,-0.258899
322,0.167043,-0.888849,-0.213573
323,0.137826,-0.55652,0.15678
324,0.131842,-0.508135,0.366679
325,0.128315,-0.506779,0.473456
326,-0.206934,0.450695,0.202405
327,-0.136686,1.044122,0.269541
328,-0.096322,1.460273,0.865034
329,0.100314,-0.31072,0.855019
330,0.571513,-0.385139,0.644688
331,-0.21738,0.758806,-0.20575
332,0.064336,0.461162,-0.699616
333,0.261277,0.753552,-0.180822
334,0.105134,0.160318,-0.02593
335,-0.163568,0.052651,-0.41643
336,-0.11947,0.122189,-0.322708
337,0.10584,-0.284307,-0.384373
338,0.06661,-0.425585,-0.213286
339,0.095748,-0.357866,0.041848
340,0.250301,-0.672746,-0.280108
341,0.264128,-0.681737,-0.232593
342,0.216901,-0.586024,-0.153115
343,0.064845,-0.342979,-0.124904
344,-0.018923,-0.245134,-0.142528
345,-0.027283,-0.290051,-0.007932
346,-0.029454,-0.043922,0.239326
347,-0.136078,0.415706,0.31016
348,-0.282063,0.378806,0.269266
349,-0.61702,0.532754,0.696599
350,-0.996293,0.678425,0.338147
351,-0.832787,0.657723,0.42967
352,-0.553429,0.832723,0.018367
353,0.0903,0.496984,0.0793
354,0.361563,0.088255,-0.00032
355,0.237976,0.069544,-0.057795
356,-0.090431,0.602023,0.050503
357,0.057105,0.788304,-0.165182
358,0.393821,0.696225,-0.228721
359,0.300563,0.431773,0.128631
360,0.174856,0.263355,0.082552
361,-0.067497,-0.221692,-0.08324
362,-0.080172,-0.511092,-0.177363
363,0.009376,-0.910453,-0.229888
364,0.172903,-1.058281,-0.238347
365,0.245707,-0.998153,-0.314368
366,0.191177,-0.903856,-0.372895
367,0.16544,-0.788933,-0.354543
368,0.141294,-0.599834,-0.139741
369,0.042409,-0.288832,0.22226
370,-0.020986,-0.032399,0.365135
371,0.278982,0.852349,0.275561
372,0.104606,1.082316,0.17705
373,-0.031031,0.888282,0.426278
374,-0.042993,0.946583,0.441015
375,-0.0609,1.401687,0.396398
376,0.178124,1.320386,-0.177468
377,-0.210192,0.151685,-0.416037
378,0.247662,-0.418104,-0.034411
379,-0.091292,0.261455,-0.551841
380,0.055435,0.334969,-0.490792
381,0.103251,0.147882,-0.244889
382,-0.027953,-0.309285,-0.12857
383,-0.02503,-0.498723,-0.083905
384,0.059682,-0.598259,-0.188284
385,0.12451,-0.663628,-0.216488
386,0.217486,-0.71278,-0.176262
387,0.183986,-0.454804,0.096662
388,0.125373,-0.270269,0.118549
389,-0.071583,-0.069063,0.047708
390,-0.220018,-0.067436,0.098152
391,-0.302589,-0.016302,0.220025
392,-0.217892,0.105843,0.297829
393,-0.223177,0.099794,0.15719
394,-0.459093,0.457385,0.339081
395,-0.635675,0.652012,0.249243
396,-0.722542,0.565573,0.329157
397,-0.58832,0.413942,0.280414
398,-0.371967,0.171173,-0.10149
399,-0.171206,-0.055802,0.005866
400,0.186196,0.139201,-0.134975
401,0.204129,0.943191,-0.174182
402,0.307193,1.194729,-0.234675
403,0.580787,1.226685,0.116132
404,0.515234,0.847059,-0.02598
405,0.26787,0.333,0.27439
406,0.001401,-0.0203,0.009985
407,-0.183458,-0.268401,-0.050634
408,-0.171753,-0.74027,-0.074948
409,0.078465,-1.014536,-0.272473
410,0.155665,-1.138353,-0.312022
411,0.225487,-1.135156,-0.383603
412,0.253312,-1.037892,-0.404017
413,0.406871,-0.640535,-0.005525
414,0.300558,-0.506978,0.074561
415,0.18006,-0.365339,0.25049
416,0.228678,0.381251,0.50372
417,-0.141992,0.771283,0.373101
418,-0.358739,0.840099,0.303057
419,0.165171,0.038832,0.793043
420,0.237452,0.00368,0.577844
421,0.481086,0.494847,0.189319
422,0.152756,0.954638,-0.282734
423,0.182606,0.865398,-0.368689
424,0.171256,-0.21694,-0.258142
425,0.103374,0.014479,-0.183722
426,0.009191,0.060078,-0.384649
427,-0.025722,0.014923,-0.328479
428,0.039244,-0.096853,-0.221686
429,0.050163,-0.310875,-0.171852
430,0.2047,-0.550396,-0.056303
431,0.238451,-0.637417,-0.116661
432,0.300288,-0.741896,-0.18882
433,0.222057,-0.417734,-0.07551
434,0.097579,-0.268872,-0.003408
435,0.006642,-0.123946,0.109904
436,-0.108602,-0.154997,0.16821
437,-0.24806,-0.069587,0.155636
438,-0.284515,0.066481,0.290824
439,-0.274951,0.06549,0.351822
440,-0.499174,0.370649,0.576251
441,-0.685984,0.505311,0.786271
442,-0.997527,0.786561,0.333562
443,-0.648814,0.703444,0.364055
444,-0.280519,0.59966,-0.132699
445,0.208367,0.324223,0.02524
446,0.430383,0.285817,-0.073592
447,0.384185,0.239342,-0.277575
448,0.382801,0.852396,-0.208425
449,0.387127,0.748843,-0.196956
450,0.398385,0.756027,-0.037641
451,0.176133,0.331476,0.096057
452,0.034883,-0.169053,-0.060044
453,0.028179,-0.319146,-0.070191
454,0.051488,-0.482492,-0.100214
455,0.116843,-0.912087,-0.233792
456,0.0454,-0.927266,-0.210661
457,0.039546,-0.999854,-0.240845
458,0.241588,-1.057634,-0.139864
459,0.191984,-0.90295,0.028514
460,0.132287,-0.740173,0.154773
461,-0.098292,-0.179964,0.282365
462,0.039792,0.587716,0.484675
463,-0.202265,0.847539,0.255863
464,-0.009975,0.529427,0.685584
465,-0.074664,0.046217,1.034837
466,-0.074166,0.761914,0.095183
467,-0.129762,0.624092,-0.576602
468,0.012074,0.623442,-0.80093
469,0.465055,-0.293928,0.10709
470,0.250565,0.194267,-0.149207
471,0.023571,0.212859,-0.493261
472,-0.026724,0.264632,-0.230693
473,-0.035411,-0.086982,-0.203988
474,0.00274,-0.251808,-0.144387
475,0.144032,-0.527695,-0.000841
476,0.165079,-0.656831,-0.030645
477,0.338324,-0.868031,-0.173793
478,0.21145,-0.607456,-0.046789
479,0.162454,-0.501733,0.006288
480,0.077787,-0.159828,0.109819
481,0.061033,-0.138559,0.075203
482,-0.097817,0.040829,0.287506
483,-0.282802,0.208811,0.316185
484,-0.401397,0.238981,0.243889
485,-0.464392,0.350011,0.557794
486,-0.562811,0.565785,0.476614
487,-0.774754,0.745765,0.32155
488,-0.695552,0.78611,0.15615
489,-0.269287,0.497145,0.134523
490,-0.158214,0.263659,-0.052056
491,0.100062,0.391669,-0.068054
492,0.118188,0.676351,-0.21491
493,0.291683,0.922567,-0.231958
494,0.587422,0.882958,0.020004
495,0.584677,0.767676,0.058589
496,0.262187,0.154205,0.000311
497,0.107712,-0.197084,-0.038167
498,-0.069395,-0.540909,-0.139011
499,-0.035951,-1.085514,-0.19493
500,0.152757,-1.09544,-0.352723
501,0.153901,-1.108763,-0.289768
502,0.141551,-1.041866,-0.28887
503,0.188727,-1.017141,-0.170844
504,0.175225,-0.941419,-0.180762
505,0.122438,-0.669325,0.084779
506,0.0102,-0.223849,0.636715
507,-0.39928,0.289287,0.646882
508,-0.218831,1.283684,0.394974
509,0.109756,1.031069,0.637256
510,-0.271539,-0.294089,1.105628
511,0.377531,0.472893,0.106976
512,0.081369,0.875333,0.017268
513,0.135674,0.803146,-0.614092
514,0.333958,0.247934,0.13366
515,0.155088,-0.091782,-0.044359
516,-0.084934,0.051414,0.069573
517,-0.195494,0.12138,-0.374326
518,-0.182956,0.047482,-0.252183
519,-0.06879,-0.338849,-0.220436
520,0.122967,-0.486668,-0.039954
521,0.238669,-0.546665,0.077525
522,0.358039,-0.66844,-0.100199
523,0.367381,-0.59587,-0.210658
524,0.299669,-0.339631,-0.089384
525,0.210842,-0.301333,-0.079547
526,0.140475,-0.306657,-0.054774
527,-0.055773,-0.297562,0.052192
528,-0.265274,0.091398,0.345793
529,-0.280653,0.498373,0.186266
530,-0.419168,0.258584,0.559861
531,-0.744441,0.476349,0.667668
532,-1.062516,0.652662,0.239825
533,-0.9326,0.664957,0.339447
534,-0.611429,0.740217,0.036208
535,-0.19688,0.603619,-0.009822
536,0.22412,0.251847,-0.258304
537,-0.112072,0.425399,-0.482887
538,-0.23558,0.758729,-0.322375
539,0.389753,0.994966,-0.007214
540,0.554181,0.866813,-0.096939
541,0.45527,0.21803,0.14667
542,0.139521,-0.197251,0.041533
543,-0.004691,-0.388456,-0.104401
544,-0.175234,-0.669817,-0.12314
545,-0.115364,-0.960272,-0.240589
546,-0.03466,-0.965721,-0.252466
547,0.131681,-1.032647,-0.290863
548,0.358295,-1.028362,-0.252329
549,0.316796,-0.955549,-0.146822
550,0.163508,-0.741541,0.043675
551,0.191084,-0.223647,0.283342
552,0.154096,0.135005,0.575444
553,0.006927,0.547408,0.683752
554,-0.245419,0.462465,0.675549
555,-0.147581,-0.107912,0.669024
556,-0.1613,-0.138373,0.466894
557,-0.000283,1.205338,-0.037417
558,-0.316487,1.167822,-0.864573
559,0.774037,-0.485303,0.022175
560,0.514382,-0.327671,-0.004713
561,0.040343,0.271655,-0.149459
562,-0.0564,0.319327,-0.226727
563,-0.007976,0.209982,-0.233159
564,-0.067488,0.078957,-0.21762
565,0.141738,-0.442995,-0.041904
566,0.22,-0.606125,0.00632
567,0.304246,-0.752606,-0.151282
568,0.177946,-0.608558,-0.159994
569,0.066454,-0.445585,-0.027767
570,0.04894,-0.470705,0.01933
571,0.027629,-0.56536,0.009586
572,-0.078841,-0.457613,0.02896
573,-0.2193,0.029159,0.256291
574,-0.211403,0.483384,0.315892
575,-0.375421,0.256555,0.440757
576,-0.721265,0.294581,0.721092
577,-0.765221,0.67257,0.276217
578,-0.812546,0.781472,0.333634
579,-0.671387,0.912064,-0.011118
580,-0.18713,0.57104,-0.088094
581,0.257495,0.357689,-0.13844
582,0.322965,0.293701,0.021503
583,0.115969,0.523138,0.022233
584,0.16958,0.813463,-0.149492
585,0.328167,0.872098,-0.024665
586,0.395587,0.486628,0.054323
587,0.238935,0.073213,0.015293
588,0.104408,-0.205126,-0.034576
589,0.023144,-0.381074,-0.123613
590,0.05747,-0.829168,-0.1491
591,0.11676,-0.971649,-0.199955
592,0.140208,-1.079141,-0.280215
593,0.111963,-1.123851,-0.19538
594,0.114829,-1.006801,-0.315278
595,0.092501,-0.92203,-0.284376
596,-0.140424,-0.296082,0.335901
597,-0.121884,-0.122126,0.352253
598,0.054649,0.195498,0.432812
599,0.317747,0.702425,0.528266
600,0.124737,0.316639,0.610955
601,-0.045645,0.027968,0.541892
602,-0.017073,0.909675,0.28474
603,0.08392,0.91224,-0.114171
604,0.062065,0.340184,-0.343936
605,0.153562,-0.161226,-0.116106
606,-0.044479,-0.073539,-0.027258
607,-0.098021,0.018798,-0.423718
608,0.000333,-0.090123,-0.363709
609,0.102702,-0.397202,-0.099461
610,0.150955,-0.462166,-0.026606
611,0.17796,-0.490728,0.004724
612,0.256235,-0.673701,-0.085834
613,0.243356,-0.654866,-0.072311
614,0.11818,-0.510506,0.050071
615,0.025978,-0.357617,0.051075
616,-0.085198,-0.126249,0.013412
617,-0.144254,-0.185436,0.126153
618,-0.181933,0.008926,0.33863
619,-0.224862,0.392418,0.326718
620,-0.372272,0.298278,0.410068
621,-0.676857,0.576194,0.574235
622,-0.765093,0.735309,0.299968
623,-0.659787,0.648591,0.363576
624,-0.432501,0.613845,0.00027
625,-0.017611,0.302381,-0.014809
626,0.248802,0.223305,-0.161453
627,0.214767,0.188928,-0.212247
628,0.070226,0.695766,-0.162632
629,0.313308,0.984886,0.088924
630,0.429251,0.895268,0.127779
631,0.36901,0.499714,0.205465
632,0.077272,-0.176591,0.033782
633,-0.011044,-0.288822,-0.002993
634,-0.118756,-0.669319,-0.105367
635,0.03749,-0.997693,-0.235886
636,0.030641,-0.978147,-0.222603
637,0.02054,-1.019047,-0.204071
638,0.236341,-0.965635,-0.09217
639,0.221321,-0.963857,-0.109377
640,0.021757,-0.614278,0.080728
641,-0.115493,-0.346236,0.298088
642,0.234183,0.149899,0.555874
643,-0.030335,0.746957,0.533064
644,0.03374,0.418788,0.651048
645,0.075693,0.348536,0.704205
646,0.209449,0.565027,0.575243
647,-0.036734,1.079984,-0.021014
648,0.074868,0.719452,-0.265017
649,0.362763,-0.178128,-0.166474
650,0.024665,0.238651,-0.144716
651,-0.210296,0.290544,-0.376377
652,-0.178432,0.055889,-0.154499
653,-0.057791,-0.185908,-0.273288
654,-0.039082,-0.320459,-0.248792
655,0.118931,-0.608549,-0.00399
656,0.184139,-0.719226,-0.27285
657,0.289358,-0.723537,-0.170253
658,0.252152,-0.593665,-0.089956
659,0.221065,-0.505436,-0.024529
660,0.148002,-0.30252,-0.043459
661,-0.082153,-0.143549,0.105499
662,-0.156207,-0.067083,0.239447
663,-0.302644,0.429271,0.383355
664,-0.428001,0.293153,0.428697
665,-0.57254,0.131453,0.515939
666,-0.599212,0.485527,0.622156
667,-0.704024,0.660499,0.344786
668,-0.902877,0.623326,0.088752
669,-0.277779,0.457304,-0.129235
670,-0.175558,0.284467,-0.239444
671,0.19681,0.574488,-0.116339
672,0.207929,0.761386,-0.355789
673,0.354679,0.957791,0.026108
674,0.463692,1.010514,0.089713
675,0.484486,0.884634,0.110224
676,0.145316,0.180506,0.05801
677,-0.034165,-0.133255,0.017062
678,-0.140136,-0.435336,0.011684
679,-0.006394,-0.883575,-0.075729
680,0.157658,-0.979399,-0.158467
681,0.1488,-1.060874,-0.219268
682,0.163165,-1.100106,-0.245807
683,0.236831,-1.05862,-0.207314
684,0.185063,-0.891396,-0.066111
685,0.054491,-0.565692,0.225262
686,-0.028602,-0.436429,0.437392
687,0.133045,0.082878,0.335207
688,-0.03611,1.224246,0.369676
689,0.118249,0.992103,0.815258
690,0.226228,-0.103379,0.808276
691,0.186828,0.932801,-0.074976
692,0.019056,0.862718,-0.334672
693,0.019775,0.865317,-0.34243
694,0.174375,0.304232,-0.161545
695,0.325835,0.188811,0.218826
696,-0.115537,-0.078751,-0.040362
697,-0.090231,-0.321373,-0.322716
698,-0.084668,-0.502859,-0.339138
699,0.046,-0.402444,-0.139044
700,0.064497,-0.385929,-0.096074
701,0.137323,-0.60856,-0.166733
702,0.370708,-0.756783,-0.14737
703,0.268,-0.576793,-0.03636
704,-0.003249,-0.403357,0.031007
705,-0.200098,-0.369301,0.034091
706,-0.384116,-0.052765,0.279203
707,-0.433421,0.258792,0.420331
708,-0.251598,0.093459,0.425871
709,-0.389736,0.268502,0.320753
710,-0.542104,0.506787,0.576851
711,-0.706849,0.492174,0.287099
712,-0.685089,0.462813,0.440663
713,-0.541551,0.545869,0.100965
714,-0.028296,0.317986,0.084108
715,-0.026558,0.103691,-0.031476
716,0.166928,0.703501,-0.083207
717,0.196676,0.960459,-0.038886
718,0.322768,1.043706,-0.144655
719,0.456399,0.913144,0.11297
720,0.293975,0.567624,0.126138
721,-0.021691,0.177576,0.162245
722,-0.098505,-0.074792,0.040027
723,-0.042907,-0.338023,-0.022348
724,0.087929,-0.800985,-0.053594
725,0.239153,-1.106755,-0.166681
726,0.197947,-1.071508,-0.214544
727,0.118245,-1.037367,-0.209933
728,0.124598,-0.906437,-0.232069
729,0.114553,-0.796464,-0.159592
730,0.068276,-0.698947,0.016709
731,0.032181,-0.213294,0.30039
732,0.120843,0.291851,0.42327
733,-0.002858,0.719575,0.499327
734,0.172293,0.204434,0.720802
735,0.302181,0.306325,0.70866
736,0.066578,1.184572,0.144644
737,0.089441,0.595632,-0.333501
738,0.152023,0.31573,-0.240988
739,-0.017766,0.082966,-0.022918
740,-0.208906,0.252883,-0.438741
741,-0.129432,0.451996,-0.247204
742,-0.041119,0.030928,-0.158374
743,0.120857,-0.131083,-0.098805
744,0.278096,-0.416674,-0.05197
745,0.327661,-0.604435,-0.066975
746,0.315185,-0.695131,-0.213009
747,0.272485,-0.720572,-0.194389
748,0.085723,-0.53146,-0.119472
749,0.061895,-0.391662,-0.14121
750,0.048024,-0.349974,-0.098068
751,-0.020629,-0.251881,0.283568
752,-0.199697,0.094785,0.366837
753,-0.344881,0.388949,0.32061
754,-0.560613,0.083392,0.432833
755,-0.645024,0.215561,0.684553
756,-0.991707,0.433994,0.36878
757,-1.044265,0.617927,0.516684
758,-0.8852,0.462071,0.180913
759,-0.727646,0.56692,-0.034487
760,0.130992,0.27463,-0.008104
761,0.094412,0.270989,-0.295873
762,0.03906,0.425773,-0.554623
763,0.184252,1.237152,0.132541
764,0.583911,1.119885,-0.096525
765,0.684414,0.967873,-0.003335
766,0.128999,0.239172,0.224417
767,-0.192735,-0.080905,0.084317
768,-0.206173,-0.178777,-0.018881
769,-0.127473,-0.489649,-0.168613
770,0.045888,-0.908272,-0.274146
771,0.186865,-1.402171,-0.22093
772,0.354142,-1.309299,-0.301645
773,0.302291,-1.091548,-0.282515
774,0.205309,-0.867141,-0.168107
775,0.175706,-0.621337,0.046449
776,-0.058629,-0.282001,0.516765
777,-0.388391,0.224296,0.776811
778,0.168997,1.062126,0.563275
779,0.326612,0.572185,0.279799
780,0.165234,-0.174566,0.742955
781,0.442991,0.812391,0.102372
782,0.054266,0.784522,0.173055
783,0.044349,0.699518,-0.391295
784,0.292247,0.437456,-0.0146
785,-0.183724,0.420412,-0.580278
786,-0.190052,0.568725,-0.436914
787,0.058853,0.088864,-0.156065
788,0.264271,-0.030104,-0.045074
789,0.283651,-0.11438,-0.093361
790,0.084803,-0.208391,-0.072132
791,0.210903,-0.404407,-0.192148
792,0.271246,-0.531184,-0.250278
793,0.328688,-0.623551,-0.189578
794,0.220724,-0.434331,-0.195997
795,0.17694,-0.368609,-0.091903
796,0.022958,-0.425424,0.136414
797,-0.149897,-0.335889,0.128378
798,-0.32221,0.060097,0.227491
799,-0.500328,0.245449,0.3693
800,-0.696418,0.245514,0.372307
801,-0.786358,0.190959,0.486647
802,-0.704313,0.547551,0.48358
803,-0.778915,0.601932,0.377382
804,-0.676389,0.582099,0.382622
805,-0.193776,0.409024,0.049549
806,0.122722,0.28109,-0.145453
807,0.370914,0.250054,-0.240205
808,0.392485,0.23021,0.104062
809,0.240527,0.949935,0.022841
810,0.418817,1.358965,0.151203
811,0.497212,0.903025,0.283611
812,0.199041,0.410839,0.240755
813,-0.034609,0.019645,0.118148
814,-0.101886,-0.288209,-0.020583
815,-0.105237,-0.656271,-0.054392
816,0.004298,-1.008827,-0.023897
817,0.114141,-0.991559,-0.051144
818,0.172733,-1.007897,-0.03243
819,0.109008,-1.024489,-0.080874
820,0.096095,-0.945329,-0.088186
821,-0.074869,-0.759283,0.068295
822,-0.227851,-0.723407,0.254823
823,-0.535386,-0.062311,0.472718
824,0.355106,1.2934,0.689177
825,0.368808,1.208621,0.767465
826,0.251383,-0.360855,0.886028
827,0.578112,0.453447,0.29107
828,0.378045,0.824997,0.06103
829,0.516819,0.612799,-0.506366
830,-0.097869,0.506928,0.054631
831,-0.424932,0.159207,-0.138831
832,0.109051,0.021112,-0.211073
833,-0.253892,0.345565,-0.274225
834,-0.278173,0.360928,-0.226642
835,0.076897,-0.303082,-0.163185
836,0.254732,-0.582767,-0.07208
837,0.367217,-0.636686,0.01879
838,0.484883,-0.71912,-0.050212
839,0.38766,-0.487577,-0.174621
840,0.325306,-0.285821,-0.069401
841,0.05328,-0.121104,0.06874
842,-0.074874,-0.300657,0.020443
843,-0.251721,-0.345562,0.067188
844,-0.322846,-0.058045,0.342395
845,-0.403543,0.208235,0.478852
846,-0.492392,0.237593,0.587573
847,-0.679691,0.316777,0.568704
848,-0.860575,0.533859,0.240427
849,-0.868303,0.533583,0.236094
850,-0.681636,0.485891,0.095106
851,-0.042892,0.318953,-0.102834
852,0.138852,0.250944,-0.19469
853,0.191527,0.956382,-0.074062
854,0.393706,1.204001,0.150011
855,0.46959,1.250236,-0.037544
856,0.518148,0.783517,0.259135
857,0.104286,0.25585,0.063871
858,-0.044252,0.010999,0.031982
859,-0.250235,-0.47618,-0.033275
860,-0.16379,-0.945997,-0.026078
861,0.0516,-0.939242,-0.115477
862,0.096275,-1.00685,-0.075142
863,0.120336,-1.0094,-0.132064
864,0.134283,-1.033135,-0.173028
865,0.074991,-0.995195,-0.06812
866,-0.006369,-0.723407,0.177643
867,0.045582,-0.598758,0.541972
868,0.02842,-0.140062,0.301849
869,-0.106619,0.939552,0.155659
870,-0.038999,1.352841,0.998888
871,0.481864,0.225837,0.54214
872,0.170492,1.110228,0.080432
873,0.093611,1.217476,0.14209
874,0.049491,-0.152719,-0.387213
875,0.434047,0.022699,0.052144
876,-0.156932,0.442844,-0.459646
877,-0.265332,0.459356,-0.272051
878,-0.150951,0.016704,-0.150378
879,-0.031206,-0.100648,-0.003185
880,0.103597,-0.419858,-0.033456
881,0.105562,-0.498746,0.052525
882,0.149674,-0.6932,-0.2054
883,0.206267,-0.753108,-0.13995
884,0.197973,-0.542668,-0.099801
885,0.084886,-0.446454,-0.093082
886,-0.063005,-0.325604,-0.089637
887,-0.112869,-0.328145,0.11346
888,-0.241166,-0.096033,0.325934
889,-0.359895,0.23752,0.518431
890,-0.443354,0.013279,0.347348
891,-0.561742,0.067978,0.640669
892,-0.60518,0.446677,0.518307
893,-1.003992,0.729419,0.254595
894,-0.837491,0.80945,0.0654
895,-0.547162,0.954425,0.115206
896,-0.035987,0.586457,0.044859
897,0.00978,0.574864,0.015956
898,0.444698,0.596542,-0.087598
899,0.562494,0.992649,-0.089671
900,0.591359,1.105176,-0.079483
901,0.419533,0.760749,0.108078
902,0.126918,0.270943,0.068921
903,0.01033,0.077072,0.023551
904,-0.220453,-0.303832,-0.03591
905,-0.167848,-0.834779,0.027449
906,0.088526,-1.071863,-0.079618
907,0.151664,-1.179937,-0.104773
908,0.091821,-1.133188,-0.232272
909,0.112601,-1.131175,-0.219881
910,0.035988,-1.0527,-0.138937
911,-0.085492,-0.716984,0.078748
912,-0.310829,-0.418765,0.662177
913,-0.437351,0.028868,0.379498
914,0.297867,1.229208,0.471511
915,0.374053,1.489754,0.754815
916,0.19847,0.389095,0.882292
917,0.706782,-0.185318,0.284449
918,0.286418,1.087788,0.305094
919,0.076178,0.950496,-0.215995
920,0.09855,0.325762,-0.184215
921,-0.049064,0.15386,-0.44738
922,-0.029176,0.15953,-0.513843
923,-0.08535,0.163812,-0.191154
924,-0.048041,0.097223,-0.130267
925,0.101352,-0.141513,-0.14276
926,0.151628,-0.378743,-0.027846
927,0.206451,-0.573206,-0.085204
928,0.219235,-0.6689,-0.242854
929,0.186766,-0.667165,-0.221651
930,0.084129,-0.428736,-0.131444
931,-0.085179,-0.203987,0.115668
932,-0.177458,-0.259459,0.219015
933,-0.267616,-0.296381,0.281819
934,-0.451491,-0.343023,0.233759
935,-0.337722,-0.029571,0.101047
936,-0.251943,0.077868,0.127663
937,-0.724223,0.351968,0.441442
938,-0.845485,0.580017,0.559007
939,-0.821255,0.583655,0.529025
940,-0.815376,0.785378,0.220698
941,-0.548138,0.779886,0.058321
942,-0.451449,0.295834,-0.194534
943,-0.171711,-0.040756,0.050981
944,0.167974,0.096636,-0.275317
945,0.338564,0.238706,-0.271393
946,0.480915,1.344423,0.186961
947,0.546517,1.063085,0.14317
948,0.511795,0.684702,0.128745
949,-0.167371,-0.084675,0.068585
950,-0.2623,-0.268587,-0.012367
951,-0.223966,-0.446211,-0.079836
952,-0.155982,-0.845479,-0.076582
953,-0.096288,-0.944423,-0.124879
954,0.074142,-1.001617,-0.144922
955,0.100819,-0.99826,-0.256434
956,0.137882,-0.92807,-0.195209
957,0.13178,-0.855803,-0.101742
958,0.02102,-0.543076,0.39109
959,-0.071493,-0.238001,0.584677
960,-0.03621,0.020147,0.571614
961,-0.136504,0.81689,0.591469
962,0.197696,0.083387,0.682353
963,0.472213,0.345083,0.578398
964,0.039376,1.194504,0.370901
965,-0.154943,0.380594,0.035193
966,-0.144145,0.001395,-0.208419
967,0.276137,-0.095023,-0.318626
968,-0.061541,0.352419,-0.31585
969,-0.302442,0.490965,-0.523514
970,-0.138558,0.036076,-0.080219
971,-0.065348,-0.368732,-0.116048
972,-0.000836,-0.556662,-0.053482
973,0.072149,-0.516637,-0.040806
974,0.115287,-0.541665,-0.091303
975,0.101972,-0.557502,-0.061175
976,0.104173,-0.432968,0.023268
977,0.055997,-0.394534,0.113298
978,0.01167,-0.349491,0.130702
979,-0.226456,-0.182336,0.110684
980,-0.378625,-0.221034,0.304928
981,-0.454822,-0.205784,0.320545
982,-0.450777,-0.000282,0.313091
983,-0.380617,0.068889,0.416894
984,-0.580246,0.317404,0.490833
985,-0.843216,0.778285,0.274707
986,-0.814427,0.632679,0.395736
987,-0.589177,0.820696,0.03542
988,-0.219856,0.393449,-0.039675
989,-0.112906,0.124461,-0.061356
990,0.094742,0.177768,-0.312756
991,0.10345,0.783747,-0.214453
992,0.227169,1.04038,0.164467
993,0.34206,1.001203,0.086667
994,0.312601,0.474192,0.064667
995,-0.03878,0.072492,-0.00164
996,-0.288527,-0.234863,0.035797
997,-0.333031,-0.600958,-0.021196
998,-0.140588,-0.976957,-0.142398
999,-0.136796,-0.973006,-0.158882
1000,0.058552,-0.982771,-0.118254
1001,0.098344,-0.958475,-0.213025
1002,0.204817,-0.959103,-0.206299
1003,0.108486,-0.874512,-0.048258
1004,-0.005067,-0.620705,0.124007
1005,-0.046331,-0.488289,0.207932
1006,-0.034822,0.081575,0.393669
1007,-0.082966,1.468683,0.575541
1008,-0.192726,1.427722,0.926316
1009,-0.196235,0.090493,0.872019
1010,0.217381,0.102476,0.39972
1011,-0.070114,0.552483,0.041744
1012,-0.18815,0.594497,-0.265752
1013,0.349194,-0.643975,-0.530791
1014,0.58681,-0.732559,0.074703
1015,-0.311746,0.586138,-0.488077
1016,-0.208785,0.758158,-0.345917
1017,-0.082811,0.329531,-0.047157
1018,0.12593,-0.522348,-0.084872
1019,0.272889,-0.523991,0.066629
1020,0.285232,-0.508602,0.145027
1021,0.253145,-0.650446,-0.157231
1022,0.151616,-0.537313,-0.048531
1023,0.09649,-0.462669,0.061181
1024,0.042423,-0.320722,0.008874
1025,-0.091883,-0.261726,0.006877
1026,-0.148839,-0.273678,0.040158
1027,-0.177039,0.251031,0.187927
1028,-0.225503,0.4318,0.279585
1029,-0.26842,0.304804,0.362462
1030,-0.726624,0.197198,0.809926
1031,-1.088941,0.62988,0.353848
1032,-1.059267,0.762062,0.440975
1033,-0.735687,0.892342,0.128716
1034,-0.303316,0.669012,0.070668
1035,-0.114821,0.216093,0.11827
1036,0.127402,-0.038712,-0.230901
1037,-0.037017,0.272759,-0.163376
1038,-0.043437,0.79003,0.029969
1039,0.39978,1.328985,-0.007459
1040,0.512768,0.682898,0.189904
1041,0.341739,0.384443,0.16362
1042,-0.167396,-0.096088,0.023918
1043,-0.349736,-0.45478,-0.023208
1044,-0.272734,-1.063144,-0.111542
1045,0.022627,-1.070446,-0.230029
1046,0.131279,-1.033716,-0.136602
1047,0.161535,-0.981406,-0.09177
1048,0.209724,-1.004698,-0.097931
1049,0.141207,-0.863874,-0.049893
1050,0.079929,-0.761867,0.123082
1051,0.059468,-0.491916,0.35369
1052,0.136998,0.051369,0.445668
1053,0.004728,0.769873,0.189055
1054,-0.110393,0.749618,0.971687
1055,-0.060133,-0.029684,0.958816
1056,0.206293,0.019064,0.400678
1057,-0.137314,0.768414,0.210948
1058,-0.272053,0.594597,-0.515102
1059,0.628562,0.970423,0.161018
1060,0.226568,0.167134,-0.298028
1061,0.200899,-0.113142,-0.295322
1062,0.028315,-0.164696,-0.350861
1063,0.070197,0.068325,-0.164448
1064,-0.056947,0.189298,-0.059902
1065,-0.14745,0.020406,0.005128
1066,0.060922,-0.658536,0.002871
1067,0.260671,-0.985749,-0.106347
1068,0.213727,-0.907292,-0.097879
1069,-0.092184,-0.350425,-0.042779
1070,-0.176154,-0.250786,-0.034842
1071,-0.142031,-0.297274,0.200286
1072,-0.058275,-0.388831,0.281488
1073,-0.350314,0.223616,0.462196
1074,-0.499406,0.443802,0.453038
1075,-0.757359,0.207938,0.452433
1076,-0.455059,0.455586,0.776159
1077,-0.379147,0.537813,0.364795
1078,-0.646157,0.566554,0.414016
1079,-0.382273,0.483294,0.112337
1080,-0.3666,0.477327,0.10007
1081,-0.078498,0.036329,0.162929
1082,0.12401,0.603475,-0.150548
1083,0.159318,0.593542,-0.190169
1084,0.334322,1.16102,-0.035141
1085,0.467223,1.099937,0.033422
1086,0.450063,0.817064,0.143085
1087,-0.103688,0.192681,0.087671
1088,-0.300792,-0.1276,0.021663
1089,-0.297894,-0.423745,-0.022637
1090,-0.119398,-0.923526,-0.052178
1091,0.123319,-1.093504,-0.07956
1092,0.115332,-1.140443,-0.154073
1093,0.112859,-1.17521,-0.238714
1094,0.168675,-1.189289,-0.262468
1095,0.043558,-1.044375,-0.210399
1096,-0.072992,-0.680876,0.019827
1097,-0.082318,-0.329171,0.445337
1098,-0.053994,-0.176186,0.662502
1099,-0.177731,0.78807,0.423836
1100,0.054841,1.655961,0.608458
1101,0.121338,1.218471,0.773061
1102,0.581287,0.303195,0.275293
1103,0.268487,1.434264,0.401504
1104,0.279855,1.542684,-0.05921
1105,0.058296,0.294705,0.209544
1106,-0.112282,-0.998969,-0.213764
1107,0.021571,-0.642891,-0.193879
1108,-0.342913,0.008974,-0.514544
1109,-0.31704,0.343448,-0.128639
1110,-0.226839,0.366094,0.055413
1111,-0.058776,-0.343273,-0.024744
1112,0.116982,-0.740752,0.062353
1113,0.207635,-0.860099,-0.011926
1114,0.309493,-0.816227,-0.109764
1115,0.099183,-0.425971,0.018357
1116,0.00218,-0.318536,0.10233
1117,-0.072748,-0.174477,0.022993
1118,-0.063173,-0.204712,0.106437
1119,-0.107407,-0.205741,0.180343
1120,-0.422028,0.282427,0.316545
1121,-0.423114,0.28917,0.265646
1122,-0.318981,0.127114,0.39744
1123,-0.639093,0.412024,0.44357
1124,-1.092397,0.56391,0.45365
1125,-1.097544,0.564786,0.452745
1126,-0.630444,0.721094,0.007431
1127,-0.118449,0.220502,0.103781
1128,0.075987,0.152218,0.159251
1129,0.131662,0.316469,-0.252685
1130,0.05679,1.144808,0.077742
1131,0.087303,1.138366,0.021705
1132,0.241619,0.966611,0.05061
1133,0.002719,0.421663,0.144985
1134,-0.143034,0.168326,0.073954
1135,-0.203007,-0.241203,-0.072891
1136,-0.106769,-0.918148,-0.066673
1137,-0.021821,-1.053874,-0.123306
1138,0.022078,-1.094031,-0.156424
1139,-0.021428,-1.093934,-0.266866
1140,0.010842,-1.0692,-0.349209
1141,0.109469,-0.944846,-0.059487
1142,-0.03968,-0.600148,0.224525
1143,-0.052549,-0.440375,0.406717
1144,0.023101,0.240405,0.500324
1145,-0.102298,0.704881,0.199155
1146,-0.239518,1.353479,0.812063
1147,-0.097336,-0.181425,0.979552
1148,0.206392,0.265208,0.278417
1149,-0.131108,1.089193,0.14727
1150,0.059895,0.699995,-0.453714
1151,0.393406,-0.119454,-0.048249
1152,0.268448,-0.158457,0.05965
1153,-0.330191,0.229709,-0.521171
1154,-0.239454,0.245565,-0.29954
1155,-0.2175,0.111996,-0.163482
1156,0.000406,-0.328777,-0.098116
1157,0.088235,-0.474161,-0.011691
1158,0.152505,-0.563539,0.020745
1159,0.206787,-0.677933,-0.075238
1160,0.170897,-0.709534,-0.104053
1161,0.025471,-0.504686,-0.018296
1162,-0.031305,-0.211156,-0.072123
1163,-0.004799,-0.166941,0.004226
1164,-0.005277,-0.185644,0.109657
1165,-0.280326,0.042954,0.323482
1166,-0.55949,0.359394,0.406911
1167,-0.641104,0.202397,0.404553
1168,-0.891065,0.440459,0.375997
1169,-0.925967,0.663198,0.561466
1170,-0.921449,0.664268,0.568176
1171,-0.744033,0.650331,0.154994
1172,0.115032,0.41955,-0.062455
1173,0.147336,0.408749,-0.084632
1174,-0.236269,0.596117,-0.367021
1175,-0.011458,0.993557,-0.021434
1176,0.033981,0.985143,-0.065811
1177,0.545765,1.020916,-0.150377
1178,0.249183,0.335465,0.224217
1179,0.265566,0.336348,0.182683
1180,-0.106602,-0.128383,0.047558
1181,-0.093335,-0.440794,0.025285
1182,-0.092734,-0.659977,0.013968
1183,0.030241,-1.158151,-0.198167
1184,0.059762,-1.133304,-0.232879
1185,0.064341,-1.147079,-0.261206
1186,0.180688,-1.006424,-0.057443
1187,0.210545,-0.787052,0.161512
1188,0.169445,-0.690249,0.224682
1189,-0.123726,-0.238129,0.559378
1190,0.009134,0.386659,0.719389
1191,-0.126072,1.221459,0.717404
1192,-0.078548,0.762698,0.674982
1193,0.060096,-0.183326,0.651153
1194,0.363672,0.057282,0.440073
1195,0.002542,1.013144,0.487955
1196,0.144581,0.281379,-0.257296
1197,0.197616,-0.153815,-0.248808
1198,0.035305,-0.265997,-0.12443
1199,-0.388198,0.408804,-0.525279
1200,-0.387109,0.528624,-0.204622
1201,-0.130515,-0.227546,-0.032889
1202,-0.022535,-0.569429,-0.066656
1203,0.133472,-0.675528,-0.007344
1204,0.228604,-0.651602,-0.049822
1205,0.260394,-0.58129,-0.09227
1206,0.233679,-0.489835,-0.063645
1207,0.134652,-0.36075,-0.013967
1208,0.090407,-0.333074,-0.055104
1209,0.043416,-0.270478,0.014197
1210,-0.280884,-0.094704,0.306499
1211,-0.605106,0.274864,0.393534
1212,-0.71065,0.395635,0.369482
1213,-0.91357,0.24857,0.614919
1214,-0.765124,0.501216,0.627339
1215,-0.896969,0.588543,0.357337
1216,-0.791053,0.58383,0.504399
1217,-0.653024,0.512562,-0.007991
1218,-0.482368,0.325087,-0.05592
1219,0.085864,0.087755,-0.004794
1220,-0.025355,0.334323,-0.351123
1221,-0.055028,1.031994,-0.127634
1222,0.333663,1.336277,-0.025006
1223,0.730478,1.139326,0.098993
1224,0.786667,0.846259,0.168915
1225,0.061134,-0.07018,0.096227
1226,-0.387871,-0.406621,-0.0133
1227,-0.449788,-0.548405,-0.038208
1228,-0.242178,-1.030156,-0.162712
1229,-0.086609,-1.109162,-0.096436
1230,-0.022959,-1.176559,-0.167829
1231,0.145394,-1.117313,-0.193173
1232,0.149544,-1.045867,-0.066677
1233,0.132901,-0.949219,0.028122
1234,0.036793,-0.50785,0.483074
1235,0.150527,-0.129213,0.438197
1236,-0.113339,0.775455,0.158826
1237,-0.208345,1.354087,0.815629
1238,0.102242,0.531354,1.11515
1239,0.0401,-0.074357,1.065507
1240,-0.314877,0.764754,0.152563
1241,0.012886,0.473846,-0.229001
1242,0.204861,0.222983,-0.194778
1243,0.246118,-0.281268,-0.015075
1244,-0.295579,0.389152,-0.406999
1245,-0.370191,0.52858,-0.457154
1246,-0.135731,-0.144844,-0.059511
1247,0.082951,-0.473548,-0.071149
1248,0.180483,-0.574296,0.155948
1249,0.181877,-0.584494,0.054334
1250,0.169738,-0.582981,0.099314
1251,0.216758,-0.749828,-0.120802
1252,0.147367,-0.334267,-0.057145
1253,0.039103,-0.153915,0.0013
1254,0.001422,-0.107275,0.030924
1255,-0.02886,-0.322374,0.197301
1256,-0.191211,-0.19604,0.342896
1257,-0.502957,0.380825,0.477899
1258,-0.879627,0.1951,0.635958
1259,-0.817391,0.304226,0.729661
1260,-0.81748,0.444336,0.462162
1261,-0.982168,0.569584,0.473469
1262,-0.659539,0.58134,0.274373
1263,-0.214973,0.463849,0.111872
1264,0.010608,0.436256,-0.644732
1265,0.036586,1.09798,-0.05862
1266,0.347903,1.240801,0.082557
1267,0.520669,1.149731,-0.105654
1268,0.375333,0.746861,0.162815
1269,0.210233,0.580667,0.108737
1270,-0.20784,-0.029442,0.102327
1271,-0.229637,-0.479672,0.055313
1272,-0.209627,-0.475421,0.027053
1273,-0.092316,-0.959676,-0.06968
1274,-0.025088,-1.111825,-0.097368
1275,-0.013731,-1.180667,-0.179102
1276,0.074781,-1.125929,-0.189988
1277,0.084786,-1.093725,-0.131979
1278,0.084941,-1.007516,-0.027843
1279,0.030011,-0.663468,0.381486
1280,0.09429,-0.335598,0.42161
1281,0.10045,0.061827,0.377858
1282,-0.201241,1.507257,0.905989
1283,-0.137704,-0.415251,1.176368
1284,-0.146292,-0.391758,0.995929
1285,0.115218,0.616037,0.147599
1286,-0.133051,0.782134,-0.399146
1287,0.113688,0.876249,-0.289715
1288,0.253692,0.020856,0.079606
1289,-0.147155,0.083914,-0.301425
1290,-0.213775,0.138331,-0.391092
1291,-0.171159,-0.080233,-0.250577
1292,0.022204,-0.240643,-0.120897
1293,0.054003,-0.25241,-0.015071
1294,0.097736,-0.383767,0.147792
1295,0.125322,-0.502683,0.027751
1296,0.281497,-0.689532,-0.115917
1297,0.257426,-0.493046,0.06279
1298,0.084296,-0.315867,-0.001431
1299,-0.041882,-0.273465,-0.077442
1300,-0.132434,-0.313546,0.072957
1301,-0.307723,-0.194129,0.335946
1302,-0.428773,0.077575,0.426731
1303,-0.486444,0.251791,0.634844
1304,-0.764379,0.302672,0.746379
1305,-0.884987,0.573539,0.387061
1306,-1.1522,0.72746,0.358834
1307,-0.708705,0.887656,0.26365
1308,-0.417152,0.690522,0.158077
1309,-0.075094,0.229077,-0.224313
1310,-0.034865,0.238048,-0.129378
1311,0.137043,0.357428,-0.216778
1312,0.334375,1.282951,0.258054
1313,0.487379,1.370002,0.074765
1314,0.239356,0.49193,0.090541
1315,-0.246452,-0.032314,0.161133
1316,-0.332745,-0.170766,0.139931
1317,-0.306038,-0.42829,0.085204
1318,-0.104079,-0.82144,-0.003209
1319,0.09524,-0.892398,-0.106453
1320,0.10883,-0.951471,-0.080321
1321,0.0345,-0.99534,-0.202005
1322,0.080245,-1.028265,-0.196675
1323,0.118345,-1.031028,-0.105325
1324,0.199724,-0.705628,0.284446
1325,0.023291,-0.488323,0.681152
1326,-0.219701,-0.141206,0.381272
1327,0.156255,1.001,0.542346
1328,-0.087608,0.412097,0.721295
1329,0.049144,0.161967,0.641113
1330,0.144554,0.760616,0.394281
1331,0.165489,0.895459,0.263652
1332,0.072214,0.479367,0.095428
1333,0.173978,-0.455119,-0.408008
1334,-0.177069,0.068823,-0.114538
1335,-0.287072,0.22691,-0.420573
1336,-0.445063,0.5254,-0.082003
1337,-0.224776,-0.156874,-0.071134
1338,-0.141938,-0.397374,-0.056108
1339,0.059817,-0.700196,-0.070165
1340,0.248208,-0.720848,0.019969
1341,0.278442,-0.695086,0.018883
1342,0.228981,-0.52264,0.004783
1343,0.098118,-0.354022,0.190383
1344,0.043062,-0.318178,0.254928
1345,-0.037244,-0.187302,0.175787
1346,-0.122509,-0.163925,0.110057
1347,-0.192191,-0.124898,0.321986
1348,-0.363247,0.358047,0.442902
1349,-0.664972,0.212034,0.529688
1350,-0.972431,0.398454,0.693431
1351,-1.109924,0.727664,0.335256
1352,-1.005406,0.726276,0.335106
1353,-0.640077,0.843221,0.218684
1354,-0.129601,0.380682,-0.101366
1355,0.005045,0.349715,-0.103785
1356,-0.007743,0.318193,-0.322751
1357,0.160482,0.93937,0.227734
1358,0.286665,1.170872,-0.053874
1359,0.402385,1.115124,-0.030137
1360,0.264621,0.389326,0.191042
1361,-0.100399,-0.044557,0.033297
1362,-0.183674,-0.200692,0.027671
1363,-0.284487,-0.570605,-0.060383
1364,-0.221526,-0.954197,-0.105879
1365,-0.149859,-1.069281,-0.156128
1366,0.139001,-1.071659,-0.208086
1367,0.269856,-1.041731,-0.227758
1368,0.295378,-1.017232,-0.099097
1369,0.149493,-0.874899,0.131868
1370,-0.03939,-0.518155,0.374046
1371,-0.160346,-0.264412,0.650546
1372,-0.018116,0.334729,0.544389
1373,-0.239211,1.405686,0.684585
1374,-0.207815,1.175951,0.919584
1375,0.081056,-0.152324,0.823071
1376,-0.028074,0.995986,0.32737
1377,-0.032071,1.00279,0.293572
1378,0.143907,0.219132,-0.22559
1379,0.374507,-0.349054,-0.096969
1380,0.208552,-0.147548,-0.203551
1381,-0.235367,0.620691,-0.538686
1382,-0.268042,0.455449,-0.089426
1383,-0.146695,-0.22657,-0.032099
1384,0.101705,-0.657632,0.054021
1385,0.157204,-0.591308,0.164162
1386,0.118196,-0.583559,0.073327
1387,0.136701,-0.579175,0.0224
1388,0.071727,-0.4961,0.093682
1389,0.043628,-0.452399,0.14958
1390,-0.042318,-0.338157,0.153807
1391,-0.143704,-0.260374,0.243601
1392,-0.160544,-0.228099,0.313557
1393,-0.332363,0.333909,0.273392
1394,-0.54928,-0.009239,0.450478
1395,-0.784725,-0.063862,0.717443
1396,-1.273413,0.548042,0.24153
1397,-1.086679,0.724114,0.459237
1398,-0.774034,0.794008,0.442411
1399,-0.100407,0.619397,-0.0119
1400,0.042966,0.245626,0.204987
1401,0.193097,0.236932,0.003135
1402,0.223405,0.635658,-0.269276
1403,0.169748,0.949067,-0.044348
1404,0.232927,1.156001,0.14317
1405,0.432225,0.625015,0.138526
1406,0.036791,0.203969,0.208302
1407,-0.148977,0.017142,0.175907
1408,-0.362579,-0.509891,-0.01817
1409,-0.179977,-0.964207,-0.043858
1410,-0.060826,-1.045726,-0.083172
1411,0.112746,-1.061628,-0.069535
1412,0.12977,-1.115611,-0.140354
1413,0.112665,-1.152574,-0.191709
1414,0.059535,-1.111587,-0.097113
1415,-0.074106,-0.641508,0.297799
1416,-0.142114,-0.40489,0.652396
1417,0.197207,0.166602,0.354435
1418,0.055935,1.339225,0.263968
1419,0.024357,1.760438,0.827374
1420,0.04674,-0.043588,1.14998
1421,0.264726,0.601099,-0.043238
1422,0.256664,0.607108,-0.081049
1423,-0.286023,0.681829,-0.33681
1424,0.215359,-0.318984,0.094264
1425,0.043238,-0.36218,-0.08332
1426,-0.331687,0.565965,-0.420294
1427,-0.334102,0.426638,0.008166
1428,-0.340829,0.419204,0.055231
1429,0.178683,-0.541575,-0.182278
1430,0.356495,-0.426688,0.110394
1431,0.343702,-0.427218,0.160595
1432,0.295796,-0.458067,-0.022892
1433,0.221722,-0.616949,0.036032
1434,0.153063,-0.571935,0.121775
1435,-0.012926,-0.402971,0.153482
1436,-0.203276,-0.19746,0.173233
1437,-0.291856,-0.176408,0.200214
1438,-0.494211,0.041527,0.333027
1439,-0.433272,0.305318,0.426245
1440,-0.425292,0.178789,0.563626
1441,-0.796843,0.690997,0.426649
1442,-0.918057,0.834233,0.413744
1443,-0.913916,0.884604,0.429405
1444,-0.461927,0.758547,0.109066
1445,-0.221081,0.514872,-0.154064
1446,0.16278,0.229374,0.104534
1447,0.078166,0.367442,-0.066884
1448,0.061539,0.586189,-0.00477
1449,0.105787,0.870178,0.013318
1450,0.252311,0.675453,0.20766
1451,0.173692,0.405367,0.127099
1452,-0.111233,-0.026831,0.11671
1453,-0.285629,-0.434691,0.085687
1454,-0.249574,-0.817029,0.06895
1455,-0.045409,-0.999314,-0.051455
1456,0.072089,-0.96183,-0.009989
1457,0.096796,-0.934106,0.010877
1458,0.134101,-0.996017,-0.070089
1459,0.129458,-0.950328,0.005118
1460,0.103899,-0.806879,0.154057
1461,0.066034,-0.652385,0.401381
1462,0.022411,-0.03957,0.498795
1463,-0.018596,0.81105,0.285967
1464,0.022691,1.361675,0.545156
1465,0.04368,-0.642301,0.809498
1466,0.40324,0.548894,0.206797
1467,0.398498,0.553618,0.173179
1468,-0.428346,0.938916,-0.16777
1469,0.369105,-0.035308,-0.169611
1470,0.296742,-0.057054,0.188822
1471,-0.282604,0.382829,-0.466421
1472,-0.192822,0.343971,-0.22652
1473,0.057636,-0.177044,-0.123275
1474,0.269859,-0.447862,-0.051908
1475,0.203723,-0.400623,0.246146
1476,0.196804,-0.39959,0.298199
1477,0.076076,-0.484692,-0.025134
1478,0.098843,-0.602016,0.007545
1479,0.04224,-0.573937,0.04959
1480,-0.010064,-0.418888,0.020416
1481,-0.033355,-0.280618,0.170066
1482,-0.184191,-0.014654,0.411724
1483,-0.389545,0.428343,0.600488
1484,-0.522499,0.41859,0.51355
1485,-0.742611,0.007812,0.705253
1486,-0.854932,0.496487,0.377749
1487,-1.044269,0.562294,0.448211
1488,-0.796871,0.482056,0.487178
1489,-0.457216,0.539322,-0.036808
1490,-0.148804,0.360451,-0.046891
1491,0.238,0.527004,0.106581
1492,0.23351,0.796933,-0.252067
1493,0.322704,1.07605,0.140153
1494,0.404828,1.121994,0.149804
1495,0.313432,0.731543,0.140428
1496,0.156811,0.473806,0.280265
1497,-0.245652,0.041407,0.152531
1498,-0.1958,-0.316929,0.064752
1499,-0.090787,-0.476233,0.039471
1500,0.022685,-0.866215,0.08289
1501,0.125601,-1.158513,-0.05007
1502,0.163051,-1.211493,-0.154652
1503,0.269482,-1.214663,-0.287504
1504,0.195199,-1.138614,-0.162815
1505,0.044896,-0.749937,0.150424
1506,-0.025151,-0.541999,0.481173
1507,0.111648,0.065134,0.524482
1508,0.245087,1.007631,0.245955
1509,0.236298,1.657836,0.824703
1510,0.249062,0.287462,0.897798
1511,0.559177,0.498884,0.189737
1512,0.081873,0.892413,0.43494
1513,0.075707,0.464046,0.192786
1514,0.145207,-0.340021,-0.424814
1515,0.287499,-0.298485,-0.249882
1516,-0.322823,0.125184,-0.203595
1517,-0.420962,0.387889,-0.084161
1518,-0.364546,0.348608,0.060492
1519,0.020428,-0.349693,-0.097472
1520,0.203758,-0.673678,0.098691
1521,0.291145,-0.739455,0.169578
1522,0.47865,-0.757381,-0.047037
1523,0.319003,-0.472019,-0.03047
1524,0.182479,-0.33908,0.100131
1525,0.015408,-0.2364,0.235516
1526,-0.174735,-0.193714,0.233057
1527,-0.324292,-0.240045,0.28818
1528,-0.425788,0.030156,0.432066
1529,-0.56841,0.166857,0.381209
1530,-0.838434,0.132372,0.440424
1531,-0.79714,0.534308,0.825003
1532,-0.598454,0.712445,0.408009
1533,-0.721345,0.621945,0.468582
1534,-0.67823,0.716539,0.231694
1535,-0.051138,0.352502,-0.017925
1536,0.099851,0.23284,0.168376
1537,0.251607,0.353422,-0.323146
1538,0.093029,1.175684,0.260992
1539,0.218457,1.124284,0.01894
1540,0.476791,0.767575,0.260179
1541,0.069125,0.432497,0.24355
1542,-0.129053,0.175699,0.238629
1543,-0.359811,-0.572124,0.019172
1544,-0.164612,-1.057935,-0.048996
1545,0.031898,-0.984963,-0.094651
1546,0.077669,-0.906281,-0.069341
1547,0.128875,-0.941872,-0.072295
1548,0.164092,-0.879286,-0.021104
1549,0.161844,-0.821102,0.121087
1550,0.123317,-0.729854,0.316748
1551,-0.020576,-0.60871,0.634853
1552,0.047722,-0.500574,0.61658
1553,-0.058113,0.21293,0.334062
1554,-0.209316,1.497977,0.596299
1555,-0.088642,1.210976,1.119253
1556,0.573624,0.312015,0.55828
1557,0.440943,0.651369,0.124083
1558,0.016133,0.579868,0.064545
1559,-0.037914,0.082038,0.06224
1560,0.155787,-0.45489,0.036969
1561,-0.122605,0.223678,-0.001104
1562,-0.490298,0.888345,-0.312381
1563,-0.523127,0.319015,0.193858
1564,-0.344089,-0.420822,0.017645
1565,-0.061144,-0.893375,0.021403
1566,0.110048,-0.778054,0.062633
1567,0.075255,-0.665813,0.048902
1568,0.031866,-0.569637,0.072482
1569,0.052594,-0.474819,0.086544
1570,0.137232,-0.375233,0.156826
1571,-0.023019,-0.331203,0.05592
1572,-0.047878,-0.322837,0.087146
1573,-0.42755,0.126639,0.325327
1574,-0.450678,0.448258,0.137982
1575,-0.480095,0.457232,0.15104
1576,-0.720263,0.395945,0.730978
1577,-0.839481,0.599758,0.484135
1578,-1.036685,0.700371,0.357527
1579,-1.011681,0.749371,0.398417
1580,-0.580559,0.683419,0.253909
1581,-0.169717,0.341054,0.194137
1582,0.046756,0.272918,-0.277311
1583,0.019588,0.744096,0.061053
1584,0.249208,0.957961,0.358552
1585,0.562931,1.119783,-0.085991
1586,0.67726,0.925612,0.275808
1587,0.38681,0.364608,0.185283
1588,-0.191705,-0.270386,0.147133
1589,-0.310058,-0.498074,0.037879
1590,-0.309726,-0.699108,0.06451
1591,-0.096271,-1.004872,-0.046111
1592,-0.037344,-1.066084,-0.084134
1593,-0.028444,-1.113322,-0.123438
1594,0.169201,-1.113429,-0.10601
1595,0.175377,-0.992608,0.019835
1596,0.184692,-0.831526,0.225789
1597,0.066109,-0.50651,0.665607
1598,0.053497,-0.227124,0.657586
1599,-0.41939,1.812234,0.706791
1600,-0.459115,1.479184,1.030008
1601,0.1533,-0.373367,0.98114
1602,0.525363,-0.131854,0.4336
1603,0.17741,0.838967,0.282477
1604,0.025057,0.365548,-0.471172
1605,0.261269,-0.00692,-0.458586
1606,-0.075847,0.289244,-0.078304
1607,-0.209696,0.441073,-0.362008
1608,-0.232382,0.291783,-0.20123
1609,-0.038733,-0.377044,-0.07756
1610,0.184281,-0.534057,0.075383
1611,0.207628,-0.540304,0.184066
1612,0.064314,-0.53628,-0.013618
1613,0.098081,-0.540484,0.043854
1614,0.130157,-0.551973,0.063226
1615,0.087366,-0.420094,0.137899
1616,-0.115129,-0.278013,0.256525
1617,-0.21735,-0.231035,0.238255
1618,-0.403627,-0.019,0.333853
1619,-0.466052,0.262458,0.442211
1620,-0.427893,-0.014705,0.510211
1621,-0.829222,0.020358,0.546797
1622,-1.144065,0.611935,0.578172
1623,-1.028277,0.87689,0.41732
1624,-0.762862,0.820982,0.39648
1625,-0.443448,0.846329,0.207617
1626,-0.268055,0.563134,0.161493
1627,0.022727,0.19281,0.039612
1628,-0.00824,0.459715,0.014979
1629,0.022937,0.862321,0.068972
1630,0.303304,1.169558,0.121069
1631,0.666651,0.730669,0.271769
1632,0.53356,0.401748,0.216984
1633,-0.200274,-0.224677,0.132797
1634,-0.391429,-0.443388,0.050359
1635,-0.39654,-0.617585,0.033465
1636,-0.198281,-1.123671,-0.011469
1637,0.067591,-1.212202,-0.048055
1638,0.149735,-1.231273,-0.155081
1639,0.234395,-1.233251,-0.155159
1640,0.210942,-1.119988,-0.06813
1641,0.164553,-0.799379,0.267217
1642,0.078104,-0.249579,0.677911
1643,0.185416,0.762187,0.505718
1644,-0.134748,1.680876,0.702356
1645,-0.268819,0.549542,0.937418
1646,0.499972,0.023669,0.4039
1647,0.4401,0.518436,0.158911
1648,0.04433,1.045801,0.087739
1649,0.307208,-0.149125,-0.456774
1650,0.44002,-0.275038,-0.405265
1651,-0.087735,0.206244,-0.46939
1652,-0.164126,0.598359,-0.16795
1653,-0.262167,0.228621,0.044571
1654,-0.038579,-0.301929,-0.006635
1655,-0.023284,-0.519424,0.033571
1656,0.043878,-0.565929,0.129525
1657,0.192509,-0.6299,0.032086
1658,0.261102,-0.597059,0.068119
1659,0.285313,-0.540117,0.107819
1660,0.141997,-0.332316,0.121169
1661,-0.040644,-0.217069,0.180685
1662,-0.162237,-0.083337,0.354808
1663,-0.349201,0.051092,0.484027
1664,-0.497481,0.186564,0.523299
1665,-0.504828,0.060513,0.373977
1666,-0.598237,0.007041,0.521023
1667,-0.642626,0.509558,0.757756
1668,-0.694416,0.651968,0.426907
1669,-0.776276,0.625513,0.54724
1670,-0.693125,0.59493,0.223938
1671,-0.249702,0.501795,0.249295
1672,-0.014904,0.300883,0.124957
1673,0.114254,0.220249,-0.061566
1674,0.089621,0.516151,0.192427
1675,0.069643,0.990621,0.053122
1676,0.299978,0.678873,0.154106
1677,0.246825,0.501385,0.208024
1678,-0.017676,0.254896,0.219415
1679,-0.153319,-0.280108,0.09913
1680,-0.12044,-0.465354,0.017247
1681,-0.049951,-0.823498,-0.068596
1682,0.129004,-1.102408,-0.07839
1683,0.139855,-1.001135,-0.151923
1684,0.213234,-0.89613,-0.067563
1685,0.240078,-0.882193,-0.024077
1686,0.194303,-0.732139,0.236517
1687,0.107542,-0.448526,0.399373
1688,0.04062,-0.271607,0.559294
1689,0.094744,0.230737,0.627863
1690,-0.09348,1.258532,0.752385
1691,0.010366,0.456413,1.032454
1692,0.077257,0.362492,0.886682
1693,0.09217,1.041252,0.428086
1694,0.047694,0.62897,0.020195
1695,0.116624,-0.007604,0.109655
1696,0.312882,-0.660558,-0.156833
1697,-0.124109,-0.101051,-0.306684
1698,-0.097307,0.212617,-0.288901
1699,-0.161668,0.764208,0.108559
1700,-0.106228,0.237904,0.160511
1701,0.013704,-0.486024,-0.014796
1702,0.325219,-0.590352,0.155943
1703,0.272373,-0.513815,0.189062
1704,0.15751,-0.407397,0.193976
1705,-0.17695,-0.229421,0.177933
1706,-0.231362,-0.363727,0.214377
1707,-0.245973,-0.41349,0.255236
1708,-0.37162,-0.2755,0.214117
1709,-0.331003,-0.18257,0.453903
1710,-0.322538,-0.168052,0.556039
1711,-0.228702,0.255094,0.465362
1712,-0.266384,0.238243,0.456542
1713,-0.561172,0.488446,0.570892
1714,-0.620626,0.616048,0.482292
1715,-0.614392,0.576039,0.549693
1716,-0.644807,0.566312,0.219239
1717,-0.204121,0.295441,0.229153
1718,-0.047489,0.208247,0.085389
1719,0.1017,0.077543,-0.056487
1720,0.003058,0.554036,0.259505
1721,0.035764,1.036237,0.13796
1722,0.209721,0.903421,0.121433
1723,0.100303,0.395813,0.347985
1724,0.017893,0.196521,0.23534
1725,-0.136118,-0.173722,0.145038
1726,-0.087043,-0.569282,0.018144
1727,0.112704,-0.98999,0.00698
1728,0.1476,-1.021734,-0.021033
1729,0.167431,-0.931392,-0.122907
1730,0.24806,-0.805165,-0.134426
1731,0.273743,-0.763699,-0.080749
1732,0.361978,-0.697611,0.164984
1733,0.239432,-0.361956,0.383845
1734,0.112967,-0.310442,0.518715
1735,0.106868,0.032082,0.542896
1736,-0.155857,1.324103,0.781604
1737,-0.219352,1.098208,1.068536
1738,-0.063951,-0.288111,0.921579
1739,0.249436,0.405333,0.309298
1740,0.058136,0.619025,0.398719
1741,0.157894,0.181087,-0.20935
1742,0.375491,-0.091507,-0.280079
1743,0.399206,-0.164607,-0.064195
1744,0.032584,0.222356,-0.182732
1745,-0.089865,0.36146,-0.157335
1746,-0.100166,0.034796,-0.086165
1747,-0.051666,-0.305937,-0.054875
1748,0.011533,-0.394972,0.026265
1749,0.197086,-0.513887,0.166923
1750,0.104571,-0.471168,0.112088
1751,-0.026652,-0.374882,0.086451
1752,-0.08836,-0.354724,0.199538
1753,-0.160636,-0.221959,0.233066
1754,-0.236562,-0.180833,0.235328
1755,-0.24994,-0.203537,0.300661
1756,-0.307836,-0.229379,0.475012
1757,-0.415489,0.238989,0.43444
1758,-0.453842,0.353758,0.390069
1759,-0.644189,0.26936,0.634804
1760,-0.708977,0.556045,0.732042
1761,-0.899015,0.678395,0.367034
1762,-0.781238,0.92184,0.326225
1763,-0.310855,0.740741,0.15626
1764,-0.197156,0.295144,0.020528
1765,0.035508,0.355414,-0.0602
1766,0.283494,0.645287,0.077667
1767,0.373879,0.959602,0.341945
1768,0.394304,0.814943,0.137623
1769,0.073728,0.30565,0.253107
1770,-0.083236,0.173199,0.109129
1771,-0.260864,-0.158013,0.094665
1772,-0.310694,-0.518256,0.062727
1773,-0.134055,-0.978921,0.036317
1774,0.099944,-0.96374,-0.05569
1775,0.087914,-0.969374,8.60E-05
1776,0.059402,-0.934495,-0.005627
1777,0.0534,-0.951929,0.00328
1778,-0.004195,-0.88612,0.195598
1779,-0.120257,-0.692663,0.450631
1780,-0.273392,-0.440957,0.754954
1781,-0.100651,0.458843,0.358829
1782,0.052211,1.655392,0.835247
1783,0.083653,0.853602,1.133904
1784,0.396233,0.126308,0.648365
1785,0.254491,0.513576,0.23046
1786,-0.054688,0.54346,-0.120203
1787,-0.029171,0.125655,-0.149604
1788,0.344368,-0.450637,-0.146343
1789,-0.129892,0.25784,-0.035555
1790,-0.369148,0.50777,-0.395286
1791,-0.363097,0.473938,-0.175967
1792,-0.126784,-0.365054,0.022582
1793,0.105296,-0.593963,0.091998
1794,0.206646,-0.56751,0.22074
1795,0.163023,-0.485599,0.109649
1796,0.031842,-0.40895,0.109697
1797,-0.008013,-0.4274,0.148275
1798,-0.030601,-0.471682,0.145357
1799,-0.163161,-0.2939,0.129062
1800,-0.230697,-0.184129,0.152049
1801,-0.399497,-0.096691,0.379588
1802,-0.390291,0.241659,0.492313
1803,-0.339447,0.371573,0.585346
1804,-0.587467,0.132141,0.584211
1805,-0.931475,0.409081,0.559276
1806,-0.923598,0.468031,0.388695
1807,-0.926075,0.704158,0.348968
1808,-0.618134,0.663303,0.157943
1809,-0.107963,0.440627,0.062602
1810,0.022474,0.490448,0.167868
1811,0.079763,0.569841,-0.131268
1812,0.251197,0.824624,0.001671
1813,0.319581,1.038989,0.134979
1814,0.363111,0.759812,0.201353
1815,0.202089,0.310467,0.171864
1816,-0.065082,-0.006754,0.173667
1817,-0.169824,-0.338781,0.118201
1818,-0.189825,-0.639924,0.080289
1819,-0.070545,-1.047965,0.043837
1820,0.04318,-1.007709,0.005891
1821,0.057022,-0.996729,-0.032019
1822,0.138135,-0.961454,-0.025179
1823,0.240301,-0.876352,0.144567
1824,0.234108,-0.832364,0.231364
1825,0.145407,-0.747217,0.37749
1826,0.014136,-0.093132,0.575293
1827,-0.050627,0.233657,0.500755
1828,-0.09178,1.903118,1.266867
1829,-0.241695,0.683481,1.088585
1830,-0.364102,-0.518091,1.309206
1831,0.30606,0.213812,0.063356
1832,-0.076965,0.690023,0.292194
1833,-0.117831,0.777514,-0.510403
1834,0.501746,0.359975,0.066935
1835,0.468885,-0.233176,0.122513
1836,0.283333,-0.076107,0.024374
1837,-0.187924,0.089418,-0.157075
1838,-0.165174,-0.047551,-0.061694
1839,-0.121613,-0.146275,-0.008125
1840,-0.024289,-0.373597,0.24322
1841,0.119917,-0.511709,0.286435
1842,0.221095,-0.643722,0.103063
1843,0.207733,-0.597008,0.057577
1844,0.106249,-0.403974,0.162925
1845,-0.012807,-0.234209,0.210241
1846,-0.138265,-0.108839,0.31333
1847,-0.229848,-0.232838,0.349202
1848,-0.397989,-0.066367,0.468304
1849,-0.527903,0.325929,0.503321
1850,-0.525869,0.135852,0.365511
1851,-0.681321,0.284472,0.69782
1852,-0.726686,0.527541,0.646478
1853,-0.984233,0.590653,0.465755
1854,-0.888009,0.637069,0.485248
1855,-0.502143,0.731435,0.308654
1856,-0.16573,0.243434,0.170938
1857,-0.017036,0.25591,0.0848
1858,0.114237,0.442113,-0.1346
1859,0.265164,1.163448,0.187238
1860,0.298049,1.14749,0.128083
1861,0.575947,0.975049,0.309143
1862,0.023683,0.183487,0.274705
1863,-0.159406,0.015183,0.217424
1864,-0.452718,-0.476037,0.066646
1865,-0.250919,-1.009832,0.04228
1866,-0.064445,-1.089237,-0.011353
1867,0.151197,-1.154116,0.004597
1868,0.166108,-1.176412,-0.023057
1869,0.184514,-1.224253,-0.017524
1870,0.140423,-1.166823,0.084066
1871,-0.041121,-0.471147,0.609812
1872,-0.175774,-0.268694,0.75535
1873,-0.037241,1.823313,0.681379
1874,-0.031992,1.89279,0.987604
1875,0.167842,1.148503,1.116472
1876,0.198478,-0.562177,0.907524
1877,0.414566,0.631646,0.175729
1878,0.005035,0.61341,0.043328
1879,0.267343,0.48373,-0.409474
1880,0.26095,0.485771,-0.165023
1881,0.065971,0.371137,0.021107
1882,-0.127094,0.17012,-0.134174
1883,-0.168302,-0.278419,-0.225697
1884,0.023642,-0.50444,-0.095061
1885,0.223738,-0.459168,-0.002695
1886,0.16079,-0.358139,0.295818
1887,0.099778,-0.373307,0.279851
1888,0.043058,-0.459791,0.05286
1889,0.041197,-0.445919,0.060514
1890,-0.077866,-0.136853,0.228941
1891,-0.300532,0.008348,0.26173
1892,-0.381747,-0.03004,0.326466
1893,-0.358542,-0.153657,0.439648
1894,-0.452433,0.184727,0.622944
1895,-0.500179,0.147764,0.451158
1896,-0.628722,0.065285,0.620557
1897,-0.768239,0.419075,0.871109
1898,-0.515856,0.657305,0.490468
1899,-0.597057,0.526971,0.487592
1900,-0.776769,0.422732,0.113323
1901,-0.322022,0.119111,0.302723
1902,-0.086598,0.258565,0.264488
1903,0.126605,0.577129,0.05957
1904,0.072986,0.805104,0.058066
1905,0.067619,0.936829,0.043411
1906,0.351262,0.915532,0.220851
1907,0.347193,0.588006,0.234205
1908,0.088096,0.157597,0.251567
1909,-0.1989,-0.316553,0.088215
1910,-0.250647,-0.434615,0.058744
1911,-0.203489,-0.825752,0.08583
1912,-0.039822,-1.037448,-0.033751
1913,0.050781,-1.061853,-0.105124
1914,0.098345,-1.062438,-0.112357
1915,0.164361,-1.088369,-0.056463
1916,0.129272,-0.87752,0.028249
1917,0.096346,-0.70519,0.173774
1918,-0.248613,-0.019475,0.69097
1919,-0.26673,0.311602,0.622592
1920,-0.188661,0.870029,0.482649
1921,-0.020334,0.883266,1.091168
1922,-0.024988,-0.268072,1.032569
1923,0.229729,-0.244329,0.683884
1924,-0.017191,0.666901,0.017116
1925,0.155393,0.473086,-0.373265
1926,0.500703,0.304927,-0.231406
1927,0.104656,-0.144216,0.123157
1928,-0.053411,0.223771,-0.055989
1929,-0.295414,0.315381,-0.222643
1930,-0.256805,0.001712,-0.016603
1931,-0.098134,-0.345632,-0.028202
1932,0.142355,-0.477227,0.135721
1933,0.282991,-0.555487,0.260613
1934,0.198946,-0.537137,0.164425
1935,0.034061,-0.446584,0.064134
1936,-0.016625,-0.36379,0.15761
1937,-0.078717,-0.247813,0.126322
1938,-0.138457,-0.191558,0.120074
1939,-0.214469,-0.243108,0.36571
1940,-0.416837,-0.157905,0.476212
1941,-0.628028,0.165108,0.577779
1942,-0.598582,0.130479,0.409383
1943,-0.671871,0.31165,0.688733
1944,-0.561165,0.444729,0.79787
1945,-0.748561,0.497685,0.366645
1946,-0.837298,0.52847,0.463575
1947,-0.727762,0.636498,0.228087
1948,-0.286451,0.473517,0.254423
1949,-0.029909,0.211164,0.086308
1950,0.048852,0.228297,-0.076592
1951,-0.021341,0.709733,-0.0198
1952,0.071754,1.166107,0.064539
1953,0.209013,1.200777,0.17165
1954,0.279604,0.733514,0.309831
1955,-0.235788,-0.009157,0.242176
1956,-0.326618,-0.184362,0.161688
1957,-0.391156,-0.510525,0.087488
1958,-0.114098,-1.037521,0.004558
1959,-0.020665,-1.018624,-0.039988
1960,0.074226,-1.056175,-0.045624
1961,0.224554,-0.993357,-0.10027
1962,0.262688,-0.976074,0.043748
1963,-0.003339,-0.583952,0.298329
1964,-0.083136,-0.395382,0.400357
1965,-0.11991,-0.248681,0.512022
1966,0.182417,0.655331,0.493601
1967,0.13327,1.284293,0.54574
1968,-0.193079,0.334699,1.015502
1969,-0.269593,-0.275076,0.812613
1970,0.043481,0.29677,0.235639
1971,0.09201,0.868372,0.321598
1972,-0.014828,0.350275,-0.135831
1973,0.411118,-0.268905,0.147673
1974,0.177068,0.285225,0.018302
1975,-0.156082,0.564498,-0.354994
1976,-0.211082,0.245821,-0.056958
1977,-0.085355,-0.180151,-0.025015
1978,0.072898,-0.497393,0.051221
1979,0.190989,-0.455098,0.226707
1980,0.152429,-0.509815,0.199044
1981,0.10448,-0.512454,0.072367
1982,0.002153,-0.465875,0.162136
1983,-0.078991,-0.415389,0.220085
1984,-0.215997,-0.322845,0.242474
1985,-0.270187,-0.206856,0.317457
1986,-0.327691,-0.18794,0.378636
1987,-0.205697,-0.152041,0.381824
1988,-0.221749,0.474048,0.490151
1989,-0.23958,0.511373,0.454122
1990,-0.676942,0.294564,0.779083
1991,-0.760416,0.551006,0.540061
1992,-0.904505,0.573843,0.414396
1993,-0.747347,0.616612,0.530215
1994,-0.344126,0.460411,0.358705
1995,-0.262207,0.168799,0.249427
1996,-0.135373,0.12265,0.115716
1997,-0.162096,0.554388,0.053456
1998,-0.071894,0.873465,0.135543
1999,0.308648,1.038703,0.050162
2000,0.466836,0.675595,0.353479
2001,0.336203,0.495816,0.310531
2002,-0.067673,0.113464,0.246025
2003,-0.399765,-0.334789,0.058539
2004,-0.37554,-0.333722,0.027723
2005,-0.184994,-0.939107,0.03495
2006,0.015878,-1.105427,-0.059214
2007,0.090523,-1.108339,-0.018061
2008,0.128651,-1.078136,-0.092302
2009,0.186366,-1.065875,-0.036429
2010,0.115994,-0.856201,0.152091
2011,0.013579,-0.490405,0.429771
2012,-0.062966,0.038258,0.665445
2013,0.068752,0.375598,0.658105
2014,-0.026682,1.27213,0.994
2015,-0.022273,0.375825,0.895605
2016,0.046244,0.07226,0.883352
2017,0.125365,0.94785,0.35578
2018,0.097972,0.794861,0.054121
2019,-0.052017,0.55944,-0.132911
2020,0.384906,-0.543125,0.025499
2021,0.279619,-0.318085,0.146688
2022,-0.152617,0.084926,-0.282631
2023,-0.243365,0.217199,-0.069402
2024,-0.166612,-0.009212,0.121601
2025,0.034046,-0.422615,0.155109
2026,0.170579,-0.555704,0.224689
2027,0.169713,-0.591907,0.120318
2028,0.119213,-0.588786,0.131304
2029,0.079637,-0.499722,0.188738
2030,0.03223,-0.379064,0.309285
2031,-0.088745,-0.183145,0.335751
2032,-0.246033,-0.065164,0.352357
2033,-0.383629,-0.160733,0.415691
2034,-0.384272,0.031857,0.430631
2035,-0.289999,0.146147,0.488262
2036,-0.461697,0.143442,0.587543
2037,-0.652865,0.325234,0.683579
2038,-0.927005,0.695062,0.377478
2039,-0.950236,0.614822,0.655163
2040,-0.846408,0.744947,0.437352
2041,-0.501561,0.674492,0.299097
2042,-0.185247,0.152253,0.200692
2043,0.154169,-0.021427,0.265853
2044,-0.008601,0.3296,-0.315183
2045,0.346697,1.176697,0.379002
2046,0.38654,1.159836,0.326846
2047,0.655527,0.953041,0.108865
2048,0.126231,0.137686,0.34824
2049,-0.074943,-0.048088,0.214897
2050,-0.311778,-0.349703,0.14936
2051,-0.191563,-0.982781,0.149784
2052,-0.035745,-1.03638,0.055432
2053,0.140998,-0.943412,0.068135
2054,0.144524,-0.901726,0.117221
2055,0.131935,-0.905097,0.083751
2056,0.103699,-0.888168,0.11179
2057,0.080373,-0.783851,0.231405
2058,-0.049039,-0.580238,0.526121
2059,-0.343541,-0.314332,0.5799
2060,0.119775,0.760952,0.412374
2061,0.257435,1.316215,0.632549
2062,0.197426,0.174544,1.063796
2063,0.18384,-0.425864,1.126881
2064,0.544551,0.244413,0.22058
2065,-0.036984,0.748597,-0.219581
2066,0.087174,0.792189,-0.370682
2067,0.18936,0.477943,0.070552
2068,0.030341,0.216773,-0.240803
2069,-0.098555,0.298716,-0.277413
2070,-0.191514,0.103588,-0.099305
2071,0.248314,-0.319985,-0.048222
2072,0.281136,-0.28606,0.073821
2073,0.241682,-0.281816,0.266735
2074,0.173096,-0.514375,0.241332
2075,0.124895,-0.573643,0.187531
2076,0.089239,-0.664985,0.115285
2077,-0.028468,-0.400139,0.094999
2078,-0.129112,-0.314495,0.122393
2079,-0.272773,-0.191208,0.411073
2080,-0.358509,0.122105,0.54848
2081,-0.468828,0.352305,0.638494
2082,-0.525102,0.125338,0.522105
2083,-0.638899,-0.013725,0.53536
2084,-0.906579,0.365799,0.687359
2085,-0.885843,0.509596,0.701577
2086,-0.71485,0.717607,0.482055
2087,-0.601239,0.858386,0.30422
2088,-0.232885,0.61236,0.141683
2089,-0.060558,0.440874,0.122551
2090,0.046208,0.352347,-0.069639
2091,0.1585,0.653765,-0.06345
2092,0.283428,1.115335,0.3401
2093,0.405254,1.214113,0.145882
2094,0.353474,0.71137,0.333512
2095,-0.111068,0.225751,0.234894
2096,-0.352992,-0.204846,0.199373
2097,-0.352649,-0.547294,0.14198
2098,-0.115264,-1.003812,0.080295
2099,0.121238,-1.034582,0.013224
2100,0.122275,-1.013289,-0.017291
2101,0.119911,-0.990825,-0.052615
2102,0.244336,-0.966309,-0.022866
2103,0.337047,-0.850252,0.19017
2104,0.263846,-0.654492,0.338747
2105,0.042305,-0.330082,0.6152
2106,0.024688,-0.142477,0.663227
2107,0.011657,0.519587,0.500132
2108,-0.050849,1.425767,0.995915
2109,-0.107862,0.606699,1.134055
2110,-0.071047,-0.561959,1.021304
2111,-0.027982,0.698009,0.319251
2112,-0.035252,0.724985,0.314049
2113,0.076948,0.295414,-0.300992
2114,0.436203,0.115218,0.052088
2115,0.347552,-0.12058,0.361716
2116,-0.238628,0.585654,-0.12661
2117,-0.182603,0.021843,-0.147304
2118,-0.197221,-0.351272,-0.054771
2119,0.03161,-0.424307,0.0952
2120,0.133999,-0.388613,0.280107
2121,0.223166,-0.53368,0.218279
2122,0.269378,-0.514788,0.104474
2123,0.264377,-0.47941,0.177315
2124,0.140269,-0.377687,0.165404
2125,-0.112864,-0.133064,0.286906
2126,-0.175169,-0.084677,0.381142
2127,-0.37913,-0.028334,0.468692
2128,-0.587242,0.098232,0.594419
2129,-0.581687,0.097864,0.513718
2130,-0.637762,0.3757,0.729793
2131,-0.663139,0.551765,0.865879
2132,-0.813704,0.704369,0.466671
2133,-1.001264,0.88783,0.320287
2134,-0.547597,0.77215,0.283585
2135,-0.368836,0.586906,-0.09726
2136,-0.072682,0.65257,-0.070045
2137,0.291299,0.926214,0.362262
2138,0.529489,0.924177,0.148337
2139,0.494129,0.668541,-0.085431
2140,0.365761,0.45698,0.324291
2141,0.087873,0.295092,0.182361
2142,-0.050625,-0.042817,0.232879
2143,-0.108083,-0.357017,0.111015
2144,-0.108816,-0.704017,0.143249
2145,-0.010182,-1.134981,0.074013
2146,0.083272,-1.163392,-0.017619
2147,0.053422,-1.055608,-0.026731
2148,0.05367,-0.997907,0.038649
2149,0.068559,-0.955669,0.111165
2150,-0.001963,-0.687004,0.53982
2151,-0.149486,-0.508188,0.681465
2152,-0.19518,-0.392788,0.666848
2153,-0.138369,0.678001,0.498498
2154,0.017929,1.280773,0.956232
2155,0.000518,0.612953,1.054424
2156,0.235113,0.049412,0.848288
2157,-0.140564,1.018652,0.093528
2158,-0.103471,1.058163,-0.159929
2159,0.451959,-0.153708,-0.085855
2160,0.304969,-0.748895,0.175398
2161,-0.103908,0.117227,-0.384599
2162,-0.216151,0.404274,-0.435301
2163,-0.250031,0.237419,0.267102
2164,0.07849,-0.665997,0.212867
2165,0.072134,-0.662719,0.263395
2166,0.203703,-0.659885,0.283314
2167,0.111476,-0.560415,0.149098
2168,0.028353,-0.54545,0.190988
2169,-0.06249,-0.440078,0.224187
2170,-0.042586,-0.370079,0.175313
2171,-0.065438,-0.298865,0.182229
2172,-0.089399,-0.186673,0.327085
2173,-0.356421,0.298943,0.574211
2174,-0.340854,0.385413,0.565472
2175,-0.302914,0.147037,0.499592
2176,-0.805532,0.283389,0.692213
2177,-0.829687,0.597375,0.452699
2178,-0.92134,0.606251,0.441093
2179,-0.696512,0.703521,0.470237
2180,-0.400633,0.714358,0.336981
2181,-0.117337,0.323178,0.111899
2182,0.186483,0.163128,0.17441
2183,0.102117,0.556316,-0.236506
2184,0.23589,1.079556,0.257825
2185,0.365804,1.06123,0.218108
2186,0.316177,0.701623,0.268878
2187,0.100232,0.403916,0.290511
2188,-0.331335,-0.194577,0.183059
2189,-0.392179,-0.367099,0.115059
2190,-0.262026,-0.770396,0.103296
2191,-0.004725,-1.059913,0.079774
2192,0.082591,-1.061837,0.09621
2193,0.080188,-1.000337,0.078855
2194,0.131871,-1.011649,0.072751
2195,0.096819,-1.000084,0.138659
2196,0.032285,-0.846118,0.280877
2197,-0.013107,-0.563579,0.523121
2198,-0.12777,-0.319763,0.637926
2199,-0.217176,0.225261,0.493161
2200,-0.199519,0.790359,0.397413
2201,0.000929,1.061513,1.123261
2202,0.182886,-0.025491,1.015548
2203,0.462467,0.465212,0.410389
2204,0.082354,0.786764,0.38517
2205,0.230403,0.368036,0.058022
2206,0.332293,-0.246302,-0.079103
2207,0.274393,-0.166933,0.034846
2208,-0.152317,0.160164,-0.212727
2209,-0.245944,0.209436,-0.088201
2210,-0.166911,-0.125418,0.001038
2211,0.007397,-0.326655,0.051029
2212,0.268374,-0.456788,0.27911
2213,0.316044,-0.543689,0.287529
2214,0.209263,-0.451972,0.204847
2215,0.023683,-0.362339,0.207778
2216,-0.070376,-0.298409,0.270799
2217,-0.239129,-0.20566,0.306258
2218,-0.359762,-0.241045,0.252545
2219,-0.389765,-0.30459,0.442139
2220,-0.406849,-0.258776,0.56762
2221,-0.318473,0.471624,0.405677
2222,-0.237984,0.464617,0.49452
2223,-0.422437,0.259458,0.583181
2224,-0.649882,0.540837,0.609872
2225,-0.979907,0.666829,0.583037
2226,-0.824268,0.660803,0.514367
2227,-0.606119,0.671839,0.293185
2228,-0.21751,0.380981,0.329471
2229,0.040352,0.267043,0.204585
2230,0.021332,0.329602,-0.145562
2231,0.100908,0.923086,0.173482
2232,0.264037,0.994507,0.203427
2233,0.423054,0.797021,0.260351
2234,0.206125,0.397417,0.319355
2235,-0.171673,0.051189,0.214535
2236,-0.371697,-0.251983,0.118926
2237,-0.3201,-0.637094,0.076138
2238,-0.219067,-0.906079,0.055615
2239,0.087908,-1.131468,0.018109
2240,0.050843,-1.066149,0.005831
2241,0.06911,-1.01313,0.001153
2242,0.125569,-0.963795,0.11103
2243,0.045631,-0.663122,0.425168
2244,-0.033975,-0.535439,0.559916
2245,-0.329385,-0.273982,0.659627
2246,-0.297186,0.887044,0.643817
2247,-0.143605,1.411651,0.773824
2248,-0.052463,0.797408,1.042908
2249,0.022795,-0.195809,0.995774
2250,0.231814,0.492199,0.39934
2251,0.063336,0.616897,0.01453
2252,0.274664,0.273886,-0.185021
2253,0.395794,-0.123897,-0.035762
2254,-0.102024,0.211314,0.131455
2255,-0.205822,0.328876,-0.203562
2256,-0.401921,0.349845,-0.012687
2257,-0.275197,-0.318654,0.029664
2258,-0.139246,-0.491116,0.065
2259,0.087979,-0.455199,0.186839
2260,0.144929,-0.46756,0.231271
2261,0.102059,-0.438027,0.202442
2262,0.010503,-0.415536,0.179705
2263,-0.079439,-0.348041,0.24461
2264,-0.131171,-0.283852,0.264064
2265,-0.268845,-0.19712,0.324901
2266,-0.41185,-0.258178,0.398867
2267,-0.508833,-0.146595,0.458705
2268,-0.537221,0.294715,0.505452
2269,-0.522051,0.104891,0.579008
2270,-0.933178,0.466776,0.646722
2271,-0.953525,0.742695,0.515942
2272,-0.953547,0.828047,0.551607
2273,-0.778992,0.928141,0.333615
2274,-0.274709,0.664611,0.158603
2275,-0.181447,0.239718,0.050555
2276,0.015692,0.495616,-0.194617
2277,0.133377,0.676549,-0.017035
2278,0.269298,0.969044,0.384943
2279,0.391699,0.876045,0.266464
2280,0.386462,0.667131,0.215429
2281,-0.153531,0.112698,0.161108
2282,-0.531607,-0.277326,0.121437
2283,-0.596312,-0.587745,0.038685
2284,-0.497112,-0.884822,-0.010243
2285,-0.078781,-1.031637,-0.054492
2286,0.056788,-0.979195,0.025748
2287,0.114146,-0.932491,0.056366
2288,0.21125,-0.924604,0.035273
2289,0.185786,-0.896303,0.218627
2290,0.117858,-0.820288,0.3607
2291,-0.076957,-0.392345,0.598359
2292,-0.153615,0.143279,0.586461
2293,-0.288579,0.957405,0.31895
2294,-3.60E-05,0.889945,1.190324
2295,0.153533,-0.01436,0.930691
2296,0.031413,0.638672,0.313369
2297,-0.084865,0.792813,0.284574
2298,0.114263,0.216821,-0.019573
2299,0.394808,-0.492537,-0.18896
2300,0.119222,-0.318835,0.166865
2301,-0.091776,0.153376,-0.114453
2302,-0.198117,0.517362,-0.198821
2303,-0.219257,0.06946,0.180485
2304,-0.16077,-0.365666,0.082427
2305,0.175839,-0.503117,0.204855
2306,0.110937,-0.481963,0.221318
2307,0.095533,-0.475777,0.260964
2308,-0.057008,-0.353951,0.209297
2309,-0.054194,-0.34943,0.264108
2310,-0.088995,-0.312852,0.258717
2311,-0.225213,-0.176361,0.31921
2312,-0.274273,-0.190236,0.472075
2313,-0.387346,-0.267718,0.471221
2314,-0.38086,0.255016,0.35454
2315,-0.338332,0.340655,0.368367
2316,-0.453273,0.19577,0.562135
2317,-0.930927,0.705818,0.63808
2318,-0.779482,0.798665,0.703242
2319,-0.848341,0.951285,0.490059
2320,-0.645398,0.899424,0.371773
2321,-0.427986,0.358055,0.164173
2322,-0.195161,0.180456,0.287546
2323,-0.172105,0.333919,-0.146487
2324,0.136802,0.841295,0.284986
2325,0.32215,0.873033,0.245287
2326,0.450114,0.605041,0.250893
2327,0.239561,0.274523,0.251951
2328,-0.212426,-0.032126,0.170172
2329,-0.425085,-0.45795,0.097202
2330,-0.323457,-0.879532,0.069753
2331,-0.032293,-0.971168,-0.06203
2332,0.094493,-0.874682,0.051968
2333,0.127338,-0.787544,0.098519
2334,0.184409,-0.791445,0.10731
2335,0.199016,-0.810526,0.143889
2336,0.137945,-0.77018,0.449112
2337,-0.010296,-0.508757,0.469189
2338,-0.193778,-0.217472,0.587621
2339,-0.174689,0.345998,0.537711
2340,-0.086285,1.197519,0.718922
2341,0.012316,0.69329,0.957352
2342,0.022352,-0.046068,0.983448
2343,0.241029,0.228037,0.759333
2344,-0.012725,0.800166,0.487686
2345,0.059383,-0.231706,-0.124803
2346,0.268746,-0.521705,-0.406324
2347,0.407688,-0.496949,-0.172291
2348,-0.134443,0.787506,-0.460775
2349,-0.186339,0.866166,-0.240864
2350,-0.17205,-0.085356,0.170689
2351,-0.080697,-0.505447,0.019324
2352,0.238571,-0.461047,0.207927
2353,0.286495,-0.500451,0.344042
2354,0.076333,-0.479828,0.263539
2355,-0.0509,-0.366263,0.210623
2356,-0.116162,-0.40798,0.321407
2357,-0.246322,-0.300619,0.311571
2358,-0.496327,0.014887,0.307618
2359,-0.564114,-0.039031,0.460626
2360,-0.542938,-0.249206,0.547207
2361,-0.479081,-0.132851,0.480594
2362,-0.358153,0.069122,0.512436
2363,-0.430926,0.103126,0.539097
2364,-0.758479,0.59191,0.532147
2365,-0.815404,0.77108,0.54898
2366,-0.60966,0.791548,0.504724
2367,-0.615036,0.980703,0.386544
2368,-0.318836,0.415807,0.103493
2369,-0.265461,0.170267,0.138227
2370,0.15774,0.294552,0.016611
2371,0.342808,0.847118,0.284253
2372,0.379807,1.031724,0.414783
2373,0.418441,0.732921,0.234897
2374,0.203907,0.190298,0.237865
2375,0.02781,0.111479,0.200853
2376,-0.2273,-0.1448,0.246037
2377,-0.306271,-0.575327,0.227869
2378,-0.150795,-0.921274,0.139299
2379,0.025584,-0.918333,0.147784
2380,0.111545,-0.808204,0.21596
2381,0.121342,-0.762068,0.19321
2382,0.120888,-0.783133,0.192317
2383,0.115326,-0.824977,0.261194
2384,-0.006343,-0.618297,0.425135
2385,-0.207278,-0.34588,0.647668
2386,-0.254904,0.012029,0.615545
2387,0.030165,0.765539,0.493832
2388,0.035842,1.113614,0.993884
2389,0.119147,0.413047,1.050909
2390,0.319855,0.48056,0.591401
2391,0.028492,0.584251,0.441289
2392,0.186385,0.17238,0.204056
2393,0.282673,-0.118277,-0.106207
2394,0.236766,-0.15587,-0.255638
2395,-0.063167,0.13829,-0.003366
2396,-0.317423,0.393467,-0.030632
2397,-0.231961,0.030441,0.077819
2398,-0.085057,-0.378474,0.059851
2399,0.185548,-0.456202,0.142342
2400,0.322949,-0.44176,0.280444
2401,0.26516,-0.431494,0.297195
2402,0.168592,-0.35525,0.238558
2403,0.028654,-0.362027,0.259944
2404,-0.063795,-0.277398,0.306735
2405,-0.24753,-0.143983,0.280648
2406,-0.450789,-0.042354,0.400613
2407,-0.500194,-0.189374,0.496611
2408,-0.43744,0.101786,0.488093
2409,-0.43362,0.262717,0.449196
2410,-0.405413,0.283042,0.525398
2411,-0.713507,0.553764,0.690064
2412,-0.777274,0.580215,0.666062
2413,-0.646563,0.771717,0.546266
2414,-0.644873,0.862215,0.367923
2415,-0.521743,0.858425,0.332336
2416,-0.129102,0.268912,0.351761
2417,-0.043142,0.276791,0.415879
2418,0.021253,0.291246,-0.133533
2419,0.123488,0.831897,0.413995
2420,0.213003,0.897836,0.251922
2421,0.358106,0.670785,0.196248
2422,0.146679,0.170379,0.302403
2423,-0.103439,-0.081957,0.274219
2424,-0.180413,-0.227246,0.247018
2425,-0.185321,-0.770965,0.236005
2426,-0.146863,-0.931647,0.131364
2427,-0.102698,-0.925407,0.138533
2428,-0.078931,-0.910914,0.096064
2429,0.021855,-0.92122,0.11272
2430,0.131033,-0.886883,0.196357
2431,0.158304,-0.732355,0.352428
2432,0.063906,-0.465442,0.583336
2433,-0.094955,-0.050289,0.692306
2434,0.088157,0.688598,0.6494
2435,0.091814,1.52709,1.197568
