,userAcceleration.x,userAcceleration.y,userAcceleration.z
0,0.350709,-0.602174,-0.270397
1,0.48284,-0.629082,-0.301096
2,0.557312,-0.748567,-0.363315
3,0.690239,-0.991897,-0.423862
4,0.797556,-1.106337,-0.457779
5,0.793371,-1.156554,-0.380867
6,0.413852,-0.801645,0.069426
7,-0.625297,0.259876,0.893045
8,-0.985738,1.18358,1.224482
9,-0.786734,2.81078,1.421923
10,0.344879,-0.182148,0.255987
11,1.03996,-0.426371,0.610246
12,0.762286,0.876959,0.455367
13,1.311134,1.611179,-0.618028
14,0.629076,0.231159,0.231462
15,0.596665,-0.625665,-0.537948
16,0.306394,-0.186463,-1.102091
17,0.260292,-0.215936,-1.040087
18,0.144467,0.64097,-0.411275
19,-0.197773,0.377516,-0.169407
20,-0.595181,0.192605,0.602288
21,-0.080483,-0.520042,0.706013
22,0.23192,-0.658488,0.271422
23,0.505892,-0.555308,-0.174289
24,0.503756,-0.333682,-0.138862
25,0.359769,-0.059257,0.356096
26,-0.314023,-0.00393,0.654761
27,-0.685187,-0.170861,0.162307
28,-0.456295,-0.110685,0.168761
29,-0.421502,0.113207,0.399321
30,-0.847217,0.12431,-0.022473
31,-1.437623,-0.097783,-0.06508
32,-0.89626,0.258931,0.622914
33,-0.620846,0.258976,-0.011898
34,-0.339195,-0.046966,0.528182
35,-0.255833,0.647056,0.564784
36,-0.165159,1.430596,-0.019471
37,0.514138,1.566067,-0.05723
38,0.618639,1.471533,0.243508
39,0.63415,1.313506,0.303105
40,0.445415,0.471512,0.364493
41,0.312801,-0.01537,-0.123957
42,-0.05826,-0.392581,-0.157425
43,0.145625,-0.545183,-0.25879
44,0.560193,-0.61979,-0.325258
45,0.757447,-0.790871,-0.420809
46,0.876313,-0.961413,-0.45186
47,0.926782,-0.949489,-0.473923
48,0.915671,-1.169075,-0.34184
49,0.45373,-0.958957,0.087778
50,-0.508773,-0.111669,0.915847
51,-0.981899,1.535445,0.685006
52,-1.071977,2.629987,1.218712
53,0.152041,1.66491,1.038696
54,0.790866,-0.504488,0.376721
55,0.185335,1.519114,0.364422
56,0.26795,2.13855,-0.653783
57,1.200983,0.527473,-0.406769
58,0.673723,-0.666226,-0.25323
59,0.600341,-0.581796,-0.524998
60,0.151731,-0.012307,-1.092037
61,0.070373,0.802425,-0.580542
62,-0.041827,0.533299,-0.288258
63,-0.427671,0.23381,0.215077
64,-0.129115,-0.539838,0.545223
65,0.14696,-0.66599,0.341332
66,0.353614,-0.668966,0.163147
67,0.5014,-0.434319,-0.015126
68,0.557166,-0.076242,0.118581
69,0.338518,-0.05997,0.526857
70,-0.608907,-0.103126,0.480859
71,-0.711673,-0.255841,0.261136
72,-0.35752,-0.140259,0.209126
73,-0.332443,0.030814,0.136051
74,-0.970355,0.018937,-0.275687
75,-1.446882,0.216081,0.221326
76,-1.058346,0.284344,0.071292
77,-0.456858,0.748283,0.11934
78,-0.387223,1.053801,0.497265
79,-0.166046,1.209969,0.759437
80,0.454077,1.195371,-0.067711
81,0.760033,0.87687,-0.073075
82,0.896322,0.826154,0.306002
83,0.535355,0.538265,0.311063
84,0.359854,0.18511,0.11395
85,-0.143683,-0.14012,-0.182701
86,0.005134,-0.535222,-0.327327
87,0.254835,-0.688685,-0.425487
88,0.781608,-1.033184,-0.377004
89,0.888301,-0.870174,-0.373091
90,0.8932,-0.775736,-0.367817
91,0.752051,-0.935811,-0.155763
92,0.585902,-0.91653,-0.0344
93,0.184293,-0.80279,0.340131
94,-0.958529,0.789547,0.747439
95,-0.780425,2.455783,1.019518
96,-0.301012,2.230385,1.049431
97,0.421088,-0.511655,0.361299
98,0.626931,-0.584778,0.525753
99,0.625857,1.067707,0.013662
100,1.642739,1.344213,-0.277918
101,0.099465,-0.134559,-0.36106
102,0.307835,-0.347644,-0.693839
103,0.236938,-0.302898,-0.982821
104,0.260145,0.214848,-0.667787
105,0.2213,0.426785,-0.289093
106,-0.158374,0.332403,-0.225395
107,-0.561021,0.250667,0.554504
108,-0.128157,-0.493155,0.620257
109,0.196458,-0.673011,0.213932
110,0.52479,-0.622265,0.092016
111,0.543964,-0.303025,-0.066936
112,0.279982,-0.083856,0.391912
113,-0.416713,-0.14202,0.455126
114,-0.66547,-0.050944,0.083381
115,-0.590156,-0.056507,0.112485
116,-0.458657,-0.140493,0.306867
117,-0.521655,-0.082871,0.201653
118,-0.785775,-0.012751,0.037948
119,-1.095254,0.453674,0.632861
120,-0.727509,0.330702,0.261452
121,-0.568116,0.173971,0.029948
122,-0.318532,0.696826,0.583167
123,-0.169898,1.025658,0.292268
124,0.293126,1.399622,-0.356925
125,0.495797,1.287821,0.090413
126,0.50952,1.192596,0.401385
127,0.422938,0.706274,0.458152
128,0.379158,0.14103,-0.007132
129,0.161288,-0.276683,-0.290071
130,0.273038,-0.720724,-0.257497
131,0.426729,-0.662596,-0.309426
132,0.745136,-0.914078,-0.281843
133,0.734008,-0.896501,-0.260358
134,0.736106,-0.898306,-0.330911
135,0.721506,-1.002053,-0.30005
136,0.613587,-0.951545,-0.048993
137,-0.06164,-0.370522,0.549765
138,-0.712316,0.433634,0.958053
139,-0.965041,3.122438,1.335652
140,-0.364702,1.654765,1.088231
141,0.364671,-0.616919,0.377979
142,1.374731,0.069158,0.204605
143,0.772686,1.028199,-0.289082
144,1.398611,1.688643,-0.710365
145,0.043552,0.033462,-0.788587
146,0.399097,-0.159211,-0.527705
147,0.292472,-0.2171,-0.71997
148,0.34756,0.346767,-0.611122
149,0.273803,0.544751,-0.427012
150,-0.186953,0.24992,-0.15063
151,-0.348988,-0.060089,0.297301
152,0.05684,-0.684117,0.671613
153,0.27745,-0.726044,0.404295
154,0.454432,-0.231573,-0.060994
155,0.516171,-0.092374,-0.026267
156,-0.082138,-0.127408,0.503732
157,-0.523252,-0.277101,0.120596
158,-0.530933,-0.164296,0.079852
159,-0.700967,0.015428,0.29916
160,-0.655015,0.136588,0.479057
161,-0.766163,0.199115,0.114852
162,-1.067418,0.133593,-0.123856
163,-0.910683,0.264205,0.929502
164,-0.714928,0.291349,0.153614
165,-0.323017,-0.137879,0.386853
166,-0.110161,0.364692,0.566452
167,-0.06314,1.322955,0.201252
168,0.339387,1.382205,-0.200017
169,0.439529,1.457241,0.148174
170,0.502593,1.296412,0.414954
171,0.387519,0.669602,0.489078
172,0.29109,0.113554,-0.014517
173,-0.007937,-0.223336,-0.269215
174,0.221463,-0.566443,-0.1788
175,0.69237,-0.644402,-0.238922
176,0.856849,-0.770457,-0.328793
177,0.740877,-0.888399,-0.387951
178,0.79127,-1.040321,-0.44918
179,0.784315,-1.206439,-0.40716
180,0.689585,-1.011578,-0.003305
181,0.041989,-0.458048,0.501808
182,-0.416529,0.213272,1.074103
183,-0.936378,2.23391,0.879809
184,-0.019041,0.732525,0.55876
185,0.38941,-0.191433,0.24511
186,1.070902,0.034403,0.64719
187,0.374977,1.654015,-0.490521
188,1.088908,1.801484,-0.955352
189,-0.031921,-0.318524,-0.358267
190,0.360372,-0.452019,-0.500872
191,0.257568,-0.338261,-0.763229
192,0.253668,0.0569,-0.629175
193,0.11285,0.479921,-0.410265
194,-0.176511,0.435323,-0.296939
195,-0.505228,0.242739,0.339823
196,-0.316434,-0.478686,0.635325
197,0.270274,-0.748155,0.426002
198,0.385388,-0.623548,0.088249
199,0.288528,-0.324203,-0.067812
200,0.226313,-0.113282,0.030098
201,0.214934,-0.065317,0.372795
202,-0.480598,-0.175484,0.354373
203,-0.525632,-0.127213,0.035838
204,-0.535419,0.042415,0.219784
205,-0.531274,0.082114,0.404928
206,-1.29441,-0.205522,-0.190148
207,-1.388487,0.03348,-0.001601
208,-1.073053,0.186476,0.49137
209,-0.604075,0.476656,0.487408
210,-0.471181,0.75581,0.607773
211,-0.125246,1.580096,0.248612
212,0.438162,1.353753,-0.309063
213,0.522023,1.095986,0.091868
214,0.341559,1.038874,0.432143
215,0.208373,0.636943,0.408324
216,0.152137,0.205445,-0.061645
217,0.100879,-0.352743,-0.138493
218,0.23791,-0.412142,-0.176668
219,0.737888,-0.702998,-0.357935
220,0.819073,-0.976267,-0.418317
221,0.808356,-0.90712,-0.424496
222,0.744872,-0.894019,-0.436811
223,0.731279,-1.106337,-0.254832
224,0.548262,-1.012389,-0.018805
225,0.284261,-0.831302,0.210208
226,-0.866667,0.835967,0.90371
227,-0.506621,2.657496,1.2898
228,-0.501317,2.663825,1.278424
229,0.456884,-0.681346,0.244525
230,0.63494,-0.682731,0.449647
231,0.134417,1.05903,-0.087706
232,1.339551,1.159359,0.044164
233,0.362242,0.20884,0.315989
234,0.411392,-0.317672,-0.499409
235,0.315614,-0.2308,-0.753917
236,0.23995,-0.005422,-0.655645
237,0.113702,0.363816,-0.390499
238,-0.219875,0.318964,-0.168538
239,-0.46563,0.125023,0.268154
240,-0.123976,-0.54457,0.629999
241,0.306532,-0.682631,0.365323
242,0.458689,-0.570017,0.083589
243,0.444301,-0.285105,-0.140308
244,0.417428,-0.03241,0.328847
245,-0.404491,-0.092008,0.684449
246,-0.575116,-0.154525,0.197987
247,-0.662119,-0.038574,0.199911
248,-0.632511,0.039811,0.29944
249,-0.677051,0.069663,0.075944
250,-1.259146,-0.011906,-0.052865
251,-0.872994,0.225845,0.783879
252,-0.697961,0.168647,0.061101
253,-0.664058,0.261862,0.197585
254,-0.460913,1.218809,0.76696
255,0.289581,1.457323,0.239912
256,0.669144,1.312204,-0.143736
257,0.712865,1.37614,0.310566
258,0.525647,0.95329,0.495146
259,0.19966,0.34131,0.274938
260,-0.083494,-0.019969,-0.253981
261,-0.143714,-0.423091,-0.262868
262,0.392652,-0.61676,-0.366336
263,0.770889,-0.810765,-0.48008
264,0.942541,-0.91928,-0.512258
265,0.925796,-0.807735,-0.382306
266,0.845077,-0.967426,-0.339
267,0.766119,-1.087841,-0.199141
268,0.206951,-0.780114,0.232817
269,-0.45354,-0.346608,0.563865
270,-1.138287,0.922953,1.015217
271,-0.018159,1.943998,0.957749
272,0.488961,0.109912,0.300678
273,0.956905,0.075522,0.698369
274,0.596241,2.125323,-0.554908
275,1.142561,0.410306,-0.111206
276,0.643606,-0.821736,-0.397026
277,0.617052,-0.591944,-0.64104
278,0.429212,-0.519935,-1.01362
279,0.222462,0.582342,-0.685827
280,0.00925,1.003848,-0.355465
281,-0.326309,0.398445,-0.079098
282,-0.536128,-0.037008,0.536514
283,-0.044536,-0.587854,0.335709
284,0.303111,-0.671582,0.266311
285,0.398822,-0.632307,0.124667
286,0.340448,-0.400463,0.162773
287,0.281551,-0.130274,0.179874
288,0.10259,0.020459,0.426903
289,-0.675101,0.007297,0.526414
290,-0.615517,-0.118372,0.159948
291,-0.377917,-0.127912,0.255332
292,-0.485301,-0.114958,0.333998
293,-0.722189,-0.153358,-0.114853
294,-0.958618,-0.014698,-0.011491
295,-0.744149,0.558369,0.909307
296,-0.656599,0.384402,0.191928
297,-0.650679,0.210337,0.638303
298,-0.457379,0.245802,0.394673
299,0.11973,1.23051,-0.064223
300,0.332542,1.339236,-0.170399
301,0.379575,1.223722,0.249589
302,0.401752,1.019947,0.488054
303,0.385339,0.672725,0.480524
304,0.311783,0.188981,0.129435
305,0.110166,-0.160052,-0.103931
306,0.140998,-0.515032,-0.216635
307,0.334842,-0.498087,-0.199055
308,0.472635,-0.665343,-0.2762
309,0.690183,-0.880011,-0.362993
310,0.755244,-0.832724,-0.468912
311,0.819839,-0.930396,-0.484955
312,0.786872,-0.983645,-0.1724
313,0.287744,-0.605193,0.384247
314,-0.205896,-0.09592,0.753056
315,-0.772453,2.734027,1.055553
316,-0.13061,1.31106,0.978283
317,0.543579,-0.594406,0.327068
318,1.447199,-0.392189,0.495253
319,0.765289,1.365654,-0.268865
320,1.047906,1.72132,-0.639615
321,-0.337302,0.211512,-0.796734
322,0.306136,-0.206507,-0.648064
323,0.297827,-0.183989,-0.731221
324,0.225744,-0.10809,-0.610282
325,0.093203,0.149231,-0.202166
326,-0.234219,0.509657,-0.283964
327,-0.545362,0.627825,0.302508
328,-0.023775,-0.436382,0.525854
329,0.522778,-0.646407,0.479805
330,0.676967,-0.575171,0.220951
331,0.652729,-0.351617,0.105471
332,0.089552,-0.189323,0.267477
333,-0.206888,-0.146027,0.474143
334,-0.427506,-0.013016,0.51343
335,-0.294028,-0.022835,0.393044
336,-0.495978,-0.043245,0.215109
337,-0.785365,0.111987,-0.150605
338,-1.280278,0.06566,-0.271133
339,-0.868711,0.24502,1.180175
340,-0.850812,0.412704,-0.189808
341,-0.618286,0.38956,-0.00232
342,-0.393849,0.678865,0.523942
343,-0.068465,0.75645,0.726072
344,0.378301,0.861276,0.220424
345,0.569863,1.02476,-0.063052
346,0.567793,1.066974,0.269259
347,0.353688,0.653606,0.426852
348,0.241486,0.261066,0.251788
349,0.11489,0.002211,-0.088222
350,-0.045315,-0.308584,-0.091212
351,0.25923,-0.678841,-0.253653
352,0.333201,-0.660824,-0.184864
353,0.596054,-0.895751,-0.295231
354,0.674655,-0.862343,-0.3294
355,0.745554,-0.809362,-0.330535
356,0.714905,-0.802369,-0.197461
357,0.650098,-0.803879,-0.073896
358,0.133037,-0.59028,0.557163
359,-0.703044,0.491698,0.939346
360,-0.85303,2.309848,1.041015
361,-0.309128,1.613546,1.057754
362,0.134483,-0.208574,0.556725
363,0.699368,-0.453577,0.543002
364,0.484978,1.203703,-0.348662
365,1.111122,1.648935,-0.740841
366,0.477584,-0.2056,-0.007462
367,0.240543,-0.289761,-0.40632
368,0.230651,-0.073749,-0.714738
369,0.196656,0.199495,-0.541262
370,0.13895,0.365401,-0.296721
371,-0.203514,0.324989,-0.0784
372,-0.345247,0.117487,0.169264
373,0.072026,-0.765898,0.357661
374,0.489697,-0.666646,0.494381
375,0.395993,-0.526164,0.316966
376,0.092755,-0.041089,-0.008572
377,-0.109137,-0.117209,0.501735
378,-0.474142,-0.245221,0.35721
379,-0.537361,0.016875,0.099351
380,-0.570666,0.073127,0.277958
381,-0.580758,0.011965,0.430337
382,-0.630778,0.012346,0.145887
383,-1.260305,0.004992,-0.211029
384,-1.060681,0.114732,0.453981
385,-0.962304,0.491605,-0.013752
386,-0.293137,0.947839,0.320426
387,-0.049851,1.430737,0.959422
388,0.388963,1.189674,0.115266
389,0.618757,0.941609,-0.20927
390,0.725768,0.744821,0.200772
391,0.40775,0.522606,0.432919
392,-0.004909,0.213154,0.295046
393,-0.08553,0.009702,-0.07661
394,-0.0307,-0.266253,-0.182269
395,0.358174,-0.569234,-0.293941
396,0.503112,-0.674654,-0.264829
397,0.724663,-0.854376,-0.340697
398,0.807468,-0.92752,-0.357443
399,0.771283,-0.946038,-0.31934
400,0.685526,-0.931711,-0.212334
401,0.580901,-0.86325,0.023079
402,0.102379,-0.56364,0.545117
403,-0.643701,0.449764,1.01646
404,-0.644694,1.198014,0.492588
405,-0.220078,1.581578,0.974058
406,0.252394,-0.282112,0.417662
407,0.721502,-0.060809,0.716398
408,0.140251,1.842403,-0.07126
409,1.166951,0.108998,0.213808
410,0.705107,-0.7181,0.124178
411,0.724744,-0.625739,-0.240397
412,0.436909,-0.032116,-1.025789
413,0.279794,0.344975,-0.887967
414,0.03612,0.687551,-0.490847
415,-0.460847,0.278259,-0.005945
416,-0.681775,-0.124171,0.329863
417,-0.633286,-0.446957,0.411281
418,0.189804,-0.752029,0.31095
419,0.364607,-0.559663,0.157551
420,0.412553,-0.387941,0.077179
421,0.480745,0.170405,0.564677
422,-0.375348,0.075008,0.774755
423,-0.681697,-0.050011,0.474621
424,-0.475898,-0.183386,-0.006148
425,-0.355427,-0.104762,0.362256
426,-0.309389,0.049144,0.317008
427,-0.715601,0.157373,-0.149503
428,-1.017651,0.256967,0.19725
429,-0.74093,0.419875,0.681671
430,-0.60073,0.026062,-0.062994
431,-0.579833,0.136712,0.301597
432,-0.495953,0.5235,0.509325
433,-0.10648,1.117531,0.322925
434,0.530874,1.276523,-0.163556
435,0.718683,1.150294,0.147378
436,0.593266,0.840759,0.404787
437,0.380777,0.388407,0.397971
438,0.223976,-0.001488,0.066444
439,-0.034317,-0.271911,-0.031359
440,-0.079412,-0.505387,-0.094864
441,0.180984,-0.529357,-0.145851
442,0.458643,-0.699298,-0.157496
443,0.676288,-0.86243,-0.226291
444,0.74635,-0.810186,-0.313406
445,0.778283,-0.867629,-0.401671
446,0.715845,-1.062416,-0.235661
447,0.626579,-0.963759,0.043347
448,-0.161043,-0.315401,0.553474
449,-0.908556,1.456176,1.000986
450,-0.912439,2.63147,1.283178
451,-0.07079,0.081298,0.632263
452,0.279347,-0.74434,0.352087
453,1.091995,0.702205,0.37145
454,1.78274,2.612079,-0.763467
455,0.207054,-0.295482,-0.117207
456,0.050283,-0.740535,-0.713023
457,0.434505,-0.489103,-0.937573
458,0.445901,0.139123,-0.859197
459,0.354594,0.368703,-0.517549
460,-0.020956,0.580001,-0.373257
461,-0.277017,0.432523,-0.057742
462,-0.539624,-0.102543,0.549677
463,0.206113,-0.730906,0.32055
464,0.264741,-0.674895,0.260708
465,0.439833,-0.259118,-0.119272
466,0.258041,-0.023311,0.32178
467,-0.285002,0.003199,0.781697
468,-0.563875,-0.106827,0.242146
469,-0.535723,-0.069464,0.12648
470,-0.592104,-0.00664,0.390317
471,-0.574658,0.032326,0.433676
472,-0.928626,-0.117086,-0.169334
473,-1.160474,0.052503,0.132486
474,-0.740284,0.266552,0.58462
475,-0.576048,0.386761,0.455582
476,-0.411456,0.292628,0.353067
477,-0.289082,0.937111,0.592343
478,0.32545,1.272826,-0.075187
479,0.475505,1.269274,-0.168233
480,0.470679,1.232088,0.281814
481,0.337102,0.724111,0.568764
482,0.291564,0.276458,0.284348
483,0.191984,-0.093806,-0.118825
484,0.056349,-0.361664,-0.064282
485,0.314782,-0.616105,-0.191051
486,0.5562,-0.562249,-0.135584
487,0.633299,-0.748518,-0.230739
488,0.62725,-0.755461,-0.30515
489,0.70986,-0.698051,-0.395503
490,0.779029,-0.83023,-0.256966
491,0.683237,-0.977293,0.043689
492,0.195635,-0.737655,0.44336
493,-0.689931,0.338751,1.093064
494,-0.928958,2.358298,1.092468
495,-0.105414,1.627754,1.225082
496,0.45575,-0.396069,0.363436
497,0.441445,0.854089,0.428103
498,0.740794,2.26697,-0.789292
499,0.848289,-0.115422,-0.051971
500,0.793873,-0.539082,-0.036157
501,0.637061,-0.387275,-0.370144
502,0.474319,-0.172191,-0.720734
503,0.128973,0.766126,-0.4907
504,0.004718,0.588743,-0.212975
505,-0.265428,0.216162,0.018183
506,-0.434596,-0.06527,0.322456
507,-0.216019,-0.602462,0.45709
508,0.308625,-0.547525,0.28695
509,0.379964,-0.330496,0.130898
510,0.375891,-0.134879,0.091421
511,0.242579,-0.046875,0.472158
512,-0.335372,-0.19348,0.581664
513,-0.524542,-0.184026,0.286814
514,-0.375743,-0.048426,0.207811
515,-0.322318,-0.088509,0.364233
516,-0.375636,-0.019056,0.420514
517,-1.185534,-0.115667,-0.218138
518,-1.373448,0.136872,-0.030628
519,-0.776289,0.270466,0.446914
520,-0.433364,0.179187,0.580146
521,-0.377975,0.564144,0.598632
522,-0.193929,1.148993,0.222085
523,0.275935,1.381075,-0.363759
524,0.387612,1.252759,0.17398
525,0.295146,0.970823,0.56643
526,0.335492,0.531588,0.546831
527,0.338016,0.081357,0.082818
528,0.14208,-0.313414,-0.084262
529,0.153329,-0.432037,-0.03639
530,0.274343,-0.458016,-0.225476
531,0.61219,-0.810585,-0.295963
532,0.686475,-0.866228,-0.273179
533,0.777585,-0.775978,-0.335049
534,0.842453,-0.867225,-0.372675
535,0.737749,-1.003874,-0.125377
536,0.579705,-0.87133,0.266227
537,-0.215378,-0.086554,0.986552
538,-1.076583,1.728966,0.825761
539,-0.710425,2.645574,1.195943
540,0.151089,0.091889,0.368241
541,0.698739,-1.09738,0.440698
542,0.876629,0.279512,0.281033
543,0.98365,1.651577,-0.7754
544,1.038952,1.792164,0.580341
545,-0.2495,-0.085025,-0.898247
546,0.391889,-0.491979,-0.801354
547,0.415703,-0.255831,-0.810006
548,0.435793,0.040037,-0.19726
549,0.230159,0.495202,-0.276882
550,-0.093154,0.423871,-0.177212
551,-0.340537,-0.053199,0.527754
552,0.198576,-0.756179,0.368292
553,0.629455,-0.448826,0.453828
554,0.527387,-0.295117,0.265957
555,0.423729,-0.150097,0.128177
556,-0.460585,-0.148823,0.422393
557,-0.614734,-0.099684,0.240535
558,-0.495147,0.098708,0.187877
559,-0.456119,0.030793,0.3967
560,-0.610997,0.054977,0.483893
561,-1.010041,-0.006839,0.034788
562,-1.30322,0.03857,0.003523
563,-0.691232,0.260581,1.13351
564,-0.606312,0.157035,0.052925
565,-0.382233,0.405177,0.35583
566,-0.387854,1.086269,0.654384
567,0.134701,1.287019,0.003812
568,0.390217,1.176878,-0.077096
569,0.442807,1.127075,0.071342
570,0.271251,0.840787,0.670871
571,0.196635,0.31062,0.313523
572,0.127732,-0.113705,-0.206107
573,-0.030768,-0.41029,-0.115183
574,0.254031,-0.494727,-0.240808
575,0.478899,-0.585728,-0.257883
576,0.657386,-0.743666,-0.327977
577,0.704663,-0.80851,-0.33226
578,0.757174,-0.923564,-0.431375
579,0.801498,-1.140852,-0.343309
580,0.733706,-1.058984,-0.063819
581,0.115251,-0.504691,0.592386
582,-0.754079,0.842346,1.049324
583,-0.718314,2.774561,1.304171
584,0.183469,1.088136,0.824121
585,0.695987,-0.678663,0.421797
586,0.904717,0.67479,0.696785
587,0.489486,2.075961,-0.887215
588,0.96117,0.275609,-0.086099
589,0.277799,-0.422062,-0.485891
590,0.446491,-0.430584,-0.730151
591,0.370272,-0.1884,-0.915433
592,0.219162,0.327068,-0.505458
593,0.021623,0.482381,-0.266427
594,-0.310022,0.465083,-0.192449
595,-0.240847,-0.254419,0.352643
596,0.375983,-0.707353,0.690112
597,0.516588,-0.632483,0.567767
598,0.489571,-0.31937,-0.021457
599,0.383836,-0.14068,-0.094953
600,0.238491,-0.06307,0.160661
601,-0.55332,-0.058049,0.543011
602,-0.5951,-0.008498,0.239913
603,-0.556005,-0.017743,0.282956
604,-0.41109,0.028395,0.448926
605,-0.785832,-0.015191,-0.000988
606,-1.578026,0.110592,-0.194006
607,-0.881604,0.218974,1.260539
608,-0.656745,0.171211,0.119164
609,-0.339857,0.420087,0.326415
610,-0.353029,1.293729,0.735607
611,0.309687,1.569234,0.041957
612,0.594261,1.325893,-0.12602
613,0.582654,0.833662,0.391266
614,0.402986,0.609071,0.478824
615,0.200285,0.197901,0.284148
616,0.115974,-0.177835,-0.120031
617,-0.037156,-0.407999,-0.110424
618,0.129722,-0.464614,-0.099715
619,0.310299,-0.500866,-0.172266
620,0.576712,-0.742147,-0.215229
621,0.649932,-0.818913,-0.256246
622,0.705149,-0.863042,-0.403006
623,0.760535,-1.071034,-0.411623
624,0.728992,-1.01802,-0.130088
625,0.533534,-0.882591,0.064628
626,-0.700416,1.255282,0.815183
627,-0.788174,2.220643,0.958355
628,-0.19315,1.510282,1.091529
629,0.335727,-0.218048,0.351529
630,0.961285,-0.571887,0.57649
631,0.717359,1.32687,0.38891
632,1.200267,1.86545,-0.779337
633,0.17136,0.193434,-0.088782
634,0.22758,-0.327356,-0.778879
635,0.373377,-0.557138,-0.843013
636,0.325738,0.177877,-0.519639
637,0.205605,0.585122,-0.1887
638,-0.308979,0.620729,-0.098106
639,-0.423867,0.344908,0.290365
640,0.143098,-0.744491,0.318138
641,0.513127,-0.635871,0.264359
642,0.599433,-0.484788,0.250119
643,0.35893,0.087957,0.283836
644,-0.283064,-0.138422,0.406385
645,-0.426178,-0.274637,0.418867
646,-0.254921,-0.119638,0.214234
647,-0.255448,-0.012725,0.20404
648,-0.328158,-0.07266,0.48506
649,-0.668676,0.121274,0.48
650,-0.776014,0.12819,0.34326
651,-1.132115,0.091396,-0.089582
652,-0.842533,0.11104,0.599045
653,-0.740833,0.176103,0.580707
654,-0.577969,0.474592,0.396468
655,-0.345253,0.921557,0.555327
656,0.127284,1.159207,-0.104695
657,0.366487,0.864798,0.073373
658,0.234534,0.697246,0.210983
659,0.146528,0.693553,0.327629
660,0.22263,0.395288,0.39906
661,0.266578,0.090652,0.032438
662,0.10622,-0.207582,0.030636
663,0.14405,-0.304206,0.020861
664,0.410493,-0.449244,-0.140852
665,0.487816,-0.675703,-0.223014
666,0.560506,-0.765038,-0.301269
667,0.652531,-0.743284,-0.340218
668,0.760823,-1.004376,-0.227782
669,0.726983,-1.104997,-0.107258
670,0.707157,-1.041359,0.049116
671,-0.502446,0.405146,0.922215
672,-0.689007,1.23871,0.570869
673,-0.670112,2.647146,1.181363
674,0.338254,0.44044,0.667562
675,1.082233,-0.355295,0.811152
676,0.501146,1.902638,0.865034
677,0.975105,2.213336,-1.386344
678,0.370704,-0.865813,-0.437995
679,0.794749,-0.870042,-0.400698
680,0.445666,-0.612101,-0.975856
681,0.318312,0.313461,-0.548613
682,-0.180882,1.231361,-0.440488
683,-0.572479,0.491793,0.223606
684,-0.491857,-0.373921,0.395209
685,0.135724,-0.703987,0.363989
686,0.475451,-0.673033,0.351935
687,0.608503,-0.605841,0.290724
688,0.565837,-0.023521,0.085311
689,0.4798,0.089379,0.257066
690,0.136259,-0.002876,0.532217
691,-0.490759,-0.166956,0.254096
692,-0.554541,-0.029021,0.289822
693,-0.585926,0.025468,0.51713
694,-0.575479,0.063563,0.215096
695,-1.115007,-0.211623,-0.463198
696,-1.276686,0.031969,0.389633
697,-0.835181,0.257387,0.619007
698,-0.54198,-0.036658,0.314379
699,-0.47816,0.31274,0.473263
700,-0.260523,1.113776,0.5409
701,0.369788,1.49176,-0.094609
702,0.476529,1.358456,-0.065762
703,0.454221,1.169137,0.476511
704,0.279489,0.734329,0.589835
705,0.15112,0.173693,0.251721
706,0.001289,-0.273251,-0.145754
707,-0.127,-0.432269,-0.047679
708,0.148528,-0.464161,-0.144145
709,0.532895,-0.550179,-0.204395
710,0.77995,-0.836515,-0.345724
711,0.844649,-0.805093,-0.283927
712,0.890134,-0.792971,-0.303764
713,0.824539,-1.025252,-0.164737
714,0.698623,-0.974792,0.087029
715,0.061294,-0.539441,0.593425
716,-0.972267,0.87588,1.059661
717,-1.171075,3.070188,1.259598
718,-0.075704,0.946709,0.863213
719,0.583824,-0.707871,0.322212
720,1.075906,0.225595,0.473706
721,0.622875,1.777533,-0.405951
722,1.182206,0.942024,-0.249153
723,0.261137,-0.263495,-0.339522
724,0.432892,-0.395471,-0.498778
725,0.237778,-0.356876,-0.786181
726,0.194128,0.223913,-0.558443
727,0.064476,0.513299,-0.258248
728,-0.152721,0.378725,-0.187243
729,-0.265184,-0.16512,0.596485
730,0.307397,-0.604294,0.656844
731,0.367734,-0.590653,0.418835
732,0.567628,-0.329529,0.053832
733,0.453166,-0.104246,0.100825
734,-0.082826,-0.127994,0.515606
735,-0.622094,-0.168858,0.412593
736,-0.736508,-0.069825,0.151928
737,-0.570914,-0.041819,0.392686
738,-0.435164,0.018889,0.460705
739,-0.530857,0.050273,0.08514
740,-1.292384,0.016658,-0.235363
741,-1.004006,0.309588,1.058009
742,-0.614,0.250363,0.212774
743,-0.434366,0.121308,0.558452
744,-0.319547,0.502833,0.666835
745,-0.054446,1.315047,0.043779
746,0.375947,1.31512,-0.167728
747,0.414237,1.156096,0.10807
748,0.410118,0.839803,0.55482
749,0.367507,0.462872,0.500995
750,0.221094,0.026664,0.055562
751,-0.057545,-0.312203,-0.040079
752,-0.060078,-0.568169,-0.104394
753,0.288017,-0.429293,-0.155389
754,0.630698,-0.608998,-0.220564
755,0.76695,-0.757488,-0.234638
756,0.77791,-0.673512,-0.241561
757,0.810454,-0.792105,-0.240338
758,0.661599,-1.084843,-0.053118
759,0.632142,-0.936755,0.18713
760,-0.086677,-0.289389,0.724777
761,-0.963268,1.480461,0.780413
762,-0.813227,2.858988,1.25553
763,0.0975,0.331206,0.607276
764,0.811586,-0.715434,0.477336
765,0.790099,0.652418,0.319489
766,1.108685,1.645358,-0.787154
767,0.994506,0.407449,0.077953
768,0.254088,-0.120474,-0.424203
769,0.290305,-0.00091,-0.697119
770,0.296461,0.093726,-0.602143
771,0.251799,0.359791,-0.194615
772,-0.099155,0.367453,-0.18665
773,-0.423501,0.187069,0.272263
774,-0.295159,-0.496168,0.502878
775,0.15438,-0.681261,0.496929
776,0.329286,-0.600739,0.36414
777,0.339784,-0.313197,0.202528
778,0.338552,-0.109132,0.11165
779,-0.071706,-0.058156,0.587632
780,-0.3828,-0.062008,0.577408
781,-0.478098,0.124787,0.246367
782,-0.567814,0.072385,0.387659
783,-0.610793,0.068897,0.403251
784,-0.858857,0.004924,-0.020633
785,-1.159321,0.044046,0.089405
786,-0.657146,0.279281,0.966777
787,-0.611493,0.223926,0.316509
788,-0.308835,0.365532,0.45268
789,-0.357041,0.979335,0.736964
790,0.170365,1.188753,0.076084
791,0.472047,1.04698,-0.061419
792,0.549253,1.009961,0.07356
793,0.308867,0.868878,0.701842
794,0.105132,0.345436,0.303373
795,0.078549,0.133698,0.006328
796,-0.023665,-0.386339,0.059132
797,0.248168,-0.572544,-0.10347
798,0.562109,-0.481245,-0.217833
799,0.744645,-0.700259,-0.260087
800,0.713996,-0.851459,-0.220398
801,0.76966,-0.90286,-0.265528
802,0.680829,-1.112466,-0.199724
803,0.622577,-1.000166,0.033314
804,0.217228,-0.66789,0.50879
805,-0.581565,0.441861,1.154529
806,-1.151881,2.685844,1.101643
807,-0.258648,1.589845,0.956509
808,0.258485,-0.351943,0.52624
809,0.964692,-0.554273,0.761748
810,0.515933,1.281708,0.028498
811,1.482104,1.542637,-0.703312
812,0.348793,-0.222488,0.00882
813,0.210669,-0.283425,-0.531126
814,0.221301,-0.199212,-0.830474
815,0.313817,0.265092,-0.43636
816,0.262728,0.358084,-0.176728
817,-0.118689,0.18858,-0.010787
818,-0.278511,0.082191,0.304689
819,0.052363,-0.530731,0.456084
820,0.184887,-0.562249,0.420269
821,0.272195,-0.348916,0.145313
822,0.326839,-0.171641,0.1226
823,0.016096,-0.172193,0.552425
824,-0.605167,-0.095114,0.524077
825,-0.681412,-0.009401,0.315337
826,-0.616356,-0.031101,0.295668
827,-0.573173,0.042359,0.512104
828,-0.6037,0.039415,0.318603
829,-1.265085,-0.046261,-0.129554
830,-1.142979,0.265092,0.711116
831,-0.697804,0.251857,0.185564
832,-0.539726,0.444838,0.357998
833,-0.362676,0.8823,0.767192
834,0.069775,1.417069,0.181468
835,0.51492,1.176904,-0.217367
836,0.551914,0.905843,0.314662
837,0.390381,0.689942,0.560161
838,0.204856,0.343795,0.456789
839,-0.013055,-0.001203,-0.064835
840,-0.182731,-0.313533,0.001831
841,0.084168,-0.612346,-0.150224
842,0.417491,-0.638295,-0.22585
843,0.631881,-0.802625,-0.300092
844,0.750881,-0.758097,-0.298785
845,0.799393,-0.667037,-0.283692
846,0.811407,-0.735261,-0.282326
847,0.592227,-0.998835,0.099996
848,0.284474,-0.762559,0.470987
849,-0.509405,0.08685,0.975588
850,-0.761681,1.624432,0.655086
851,-0.357344,2.287785,1.274931
852,0.301492,0.115249,0.606794
853,1.001247,0.309421,0.69571
854,0.81923,1.885804,-0.145108
855,1.161639,0.901597,-0.757843
856,0.375806,-0.617821,-0.300409
857,0.4898,-0.616991,-0.464769
858,0.313105,-0.24773,-1.058295
859,0.135969,0.698289,-0.37188
860,-0.057661,0.429145,-0.129534
861,-0.404293,0.200539,0.173805
862,-0.43913,-0.350293,0.673689
863,0.138308,-0.60716,0.431382
864,0.399856,-0.57441,0.279464
865,0.494421,-0.330435,0.073658
866,0.465271,0.078206,0.17478
867,0.296797,0.04063,0.548914
868,-0.617039,-0.242001,0.372892
869,-0.636582,-0.172595,0.089759
870,-0.630744,-0.129451,0.208625
871,-0.546889,0.061576,0.581721
872,-0.727218,0.042913,0.148847
873,-1.397143,0.052645,-0.129201
874,-1.067696,0.195497,1.136745
875,-0.643392,0.115212,0.193549
876,-0.552254,0.196116,0.532854
877,-0.424279,0.754594,0.616564
878,0.150367,1.536139,-0.020416
879,0.516171,1.314069,0.071394
880,0.584842,1.136875,0.459809
881,0.433021,0.749194,0.648981
882,0.249861,0.361235,0.515227
883,-0.07576,-0.010971,-0.026242
884,-0.342153,-0.277303,0.092838
885,0.014466,-0.531565,-0.077316
886,0.438847,-0.610445,-0.151093
887,0.64006,-0.905871,-0.284431
888,0.734033,-0.830736,-0.270092
889,0.799109,-0.74764,-0.348107
890,0.771546,-0.916646,-0.298139
891,0.733533,-1.001978,-0.001012
892,0.511476,-0.775251,0.424587
893,-0.333714,0.225996,1.103973
894,-0.835077,2.485117,0.954362
895,-0.410696,2.327581,1.390227
896,0.304734,-0.273246,0.500264
897,1.04573,0.439075,0.226086
898,1.229336,2.010669,-0.161511
899,0.46793,0.004935,-0.116031
900,0.261194,-0.637326,-0.695958
901,0.387023,-0.453867,-0.714277
902,0.322148,0.083081,-0.702532
903,0.238387,0.634997,-0.196516
904,0.074176,0.465023,-0.073563
905,-0.404189,0.074712,0.473211
906,-0.41215,-0.183064,0.645055
907,0.21304,-0.666832,0.300501
908,0.444734,-0.552916,0.231828
909,0.438826,-0.470037,0.221951
910,0.160077,0.047381,0.370977
911,-0.388639,-0.184142,0.440013
912,-0.599813,-0.311276,0.333374
913,-0.519376,0.042758,0.20149
914,-0.377329,0.090609,0.460716
915,-0.424729,0.053308,0.521416
916,-1.08615,0.070005,-0.047456
917,-1.476212,0.129874,0.216248
918,-0.940958,0.202001,0.808464
919,-0.73317,0.113005,0.294345
920,-0.527871,0.502972,0.517529
921,-0.330901,1.49077,0.782071
922,0.398874,1.444615,-0.142785
923,0.550372,0.8827,0.206924
924,0.432951,0.834471,0.484126
925,0.171039,0.595558,0.653237
926,0.060133,0.174429,0.24136
927,-0.103662,-0.122455,0.128507
928,-0.01475,-0.311063,0.073406
929,0.232262,-0.447687,-0.1403
930,0.540223,-0.702424,-0.186897
931,0.632637,-0.939775,-0.235978
932,0.714733,-0.849684,-0.313671
933,0.753227,-0.947668,-0.369878
934,0.755092,-1.196088,-0.185521
935,0.62058,-1.063501,0.158214
936,-0.200459,-0.393985,0.643894
937,-0.780216,1.273201,0.845849
938,-0.665882,3.074517,1.322425
939,0.198773,0.627262,0.812841
940,1.063512,-0.54109,0.740803
941,0.792722,1.210824,0.420447
942,1.14996,1.897772,-0.86844
943,0.300919,-0.386974,-0.165829
944,0.363925,-0.57155,-0.624515
945,0.287847,-0.437995,-0.966703
946,0.139213,0.141012,-0.518387
947,0.045199,0.67904,-0.19565
948,-0.260587,0.529507,-0.263715
949,-0.38131,-0.143497,0.545214
950,-0.144531,-0.325792,0.537853
951,0.371618,-0.54888,0.426575
952,0.500327,-0.447138,0.29143
953,0.341042,-0.201381,0.085372
954,0.310834,-0.096779,0.091383
955,-0.14426,0.082705,0.628962
956,-0.632728,-0.005123,0.412423
957,-0.727462,-0.072204,0.381973
958,-0.800278,-0.065015,0.408556
959,-0.70321,0.036137,0.119488
960,-1.038413,-0.039114,-0.234386
961,-1.264443,0.152102,1.381078
962,-0.89381,0.065951,0.206731
963,-0.667857,0.296194,0.457502
964,-0.518032,1.175389,0.691961
965,0.113773,1.678208,-0.067037
966,0.454239,1.403635,0.032153
967,0.515884,1.157108,0.437651
968,0.429453,0.679877,0.594681
969,0.281328,0.183242,0.352411
970,0.051972,-0.187201,-0.118716
971,-0.114197,-0.453832,-0.064376
972,0.131293,-0.65671,-0.322917
973,0.594096,-0.748929,-0.314605
974,0.825211,-0.920562,-0.32516
975,0.764589,-0.771836,-0.30411
976,0.798832,-0.814723,-0.291271
977,0.672101,-1.060125,-0.07413
978,0.35598,-1.007413,0.261582
979,-0.455959,-0.384509,0.904872
980,-0.686216,0.801917,0.720604
981,-0.299899,2.318551,1.085231
982,0.28296,1.010954,0.813702
983,0.345442,-0.518347,0.551411
984,0.2779,1.005346,0.457404
985,0.92867,2.136317,-1.218488
986,0.910962,-0.070199,0.232963
987,0.613432,-0.565297,0.000949
988,0.455621,-0.567037,-0.688658
989,0.308392,0.203528,-1.030888
990,0.172442,0.734292,-0.367775
991,-0.08749,0.397086,-0.081439
992,-0.525522,0.213435,0.295605
993,-0.603657,-0.317701,0.854635
994,0.068739,-0.609834,0.412715
995,0.495022,-0.62523,0.081728
996,0.548918,-0.459385,0.035932
997,0.576264,-0.224677,0.054931
998,-0.571699,0.042851,0.780622
999,-0.825338,-0.050159,0.490667
1000,-0.764119,-0.206007,0.271754
1001,-0.600184,-0.078201,0.396926
1002,-0.534814,-0.082752,0.105008
1003,-1.353108,0.029083,-0.149799
1004,-1.142667,0.475602,1.079465
1005,-0.79547,0.417977,0.779529
1006,-0.450854,0.251746,0.650029
1007,-0.3792,0.613253,0.690841
1008,-0.173046,0.985171,0.643867
1009,0.523504,1.518626,-0.135228
1010,0.521216,1.385816,0.185893
1011,0.574245,1.148575,0.550476
1012,0.332836,0.387601,0.490963
1013,0.03948,-0.083314,-0.04202
1014,-0.275765,-0.456302,0.0202
1015,-0.089669,-0.73394,-0.112932
1016,0.401648,-0.767853,-0.154544
1017,0.557519,-0.837524,-0.216877
1018,0.717211,-0.79372,-0.238129
1019,0.758422,-0.742238,-0.347708
1020,0.745847,-0.933599,-0.33401
1021,0.727148,-0.982311,-0.05045
1022,0.345062,-0.685484,0.456872
1023,-0.605267,0.585338,1.32264
1024,-0.787846,2.48415,1.163823
1025,-0.017269,1.933335,1.424405
1026,0.693187,-0.187656,0.555666
1027,0.615686,0.976937,0.390244
1028,0.961593,2.134504,-0.711394
1029,0.596077,-0.396414,0.015122
1030,0.568265,-0.806768,-0.458319
1031,0.437434,-0.286066,-0.852807
1032,0.324939,-0.019711,-0.865846
1033,0.106536,0.774435,-0.434896
1034,-0.142224,0.546021,-0.020347
1035,-0.499469,0.212792,0.254962
1036,-0.539912,-0.266913,0.661457
1037,0.067411,-0.571655,0.428834
1038,0.414144,-0.624493,0.319264
1039,0.638097,-0.40236,0.197849
1040,0.562623,-0.050399,0.33858
1041,-0.125828,-0.146534,0.650882
1042,-0.621735,-0.237762,0.365816
1043,-0.566072,-0.113807,0.082545
1044,-0.524678,0.009492,0.206871
1045,-0.621746,0.176656,0.445473
1046,-1.039682,0.117167,-0.002061
1047,-1.303283,0.20403,-0.011582
1048,-0.921727,0.375301,0.601981
1049,-0.63943,0.176985,0.442123
1050,-0.499101,0.296376,0.468364
1051,-0.309751,0.930883,0.503233
1052,0.200691,1.310694,-0.151141
1053,0.348253,1.186158,-0.031911
1054,0.419256,0.864398,0.421123
1055,0.330798,0.55498,0.554483
1056,0.214318,0.147785,0.20472
1057,-0.005512,-0.288395,-0.038298
1058,0.000363,-0.574026,-0.08811
1059,0.234222,-0.506518,-0.175
1060,0.476445,-0.74243,-0.280403
1061,0.716416,-0.878991,-0.281995
1062,0.715037,-0.772636,-0.29586
1063,0.799956,-0.700309,-0.241126
1064,0.610217,-0.785706,0.075422
1065,0.335741,-0.653106,0.467274
1066,-0.015883,-0.448624,0.715979
1067,-0.564045,1.273674,0.628288
1068,-0.489981,2.214978,0.950362
1069,0.216159,0.185769,0.598753
1070,0.830825,-0.317136,0.591665
1071,0.754712,0.580691,0.424124
1072,1.340537,1.454926,-0.832839
1073,0.424148,-0.425709,0.147787
1074,0.464363,-0.439251,-0.131183
1075,0.287856,-0.305726,-0.927556
1076,0.244363,0.52831,-0.729152
1077,0.100075,0.590828,-0.197735
1078,-0.132885,0.207249,-0.058905
1079,-0.440461,0.017714,0.581141
1080,-0.501672,-0.145001,0.904725
1081,0.216919,-0.555353,0.375569
1082,0.41751,-0.544973,0.150111
1083,0.432876,-0.249139,0.010028
1084,0.275007,-0.027203,0.315132
1085,-0.543432,-0.040401,0.549604
1086,-0.665056,-0.053543,0.304613
1087,-0.688893,-0.088284,0.150234
1088,-0.473927,0.123713,0.4527
1089,-0.742055,0.025516,0.172728
1090,-1.443803,0.032778,-0.000856
1091,-1.054867,0.312734,1.176164
1092,-0.709314,0.15273,0.319367
1093,-0.448114,0.039223,0.667203
1094,-0.309105,0.497799,0.692891
1095,-0.183269,0.933139,0.406424
1096,0.303338,1.467435,-0.006239
1097,0.480507,1.277031,0.480151
1098,0.431235,1.086331,0.495545
1099,0.257544,0.378105,0.49462
1100,0.080443,-0.083755,-0.062718
1101,-0.116555,-0.524384,0.076195
1102,0.176342,-0.708191,-0.167472
1103,0.510977,-0.653469,-0.184497
1104,0.747261,-0.768028,-0.256617
1105,0.772141,-0.693359,-0.222503
1106,0.78987,-0.659692,-0.269013
1107,0.734907,-0.842673,-0.114127
1108,0.596509,-0.928001,0.173515
1109,0.151878,-0.557807,0.709462
1110,-0.719301,0.828628,1.076041
1111,-0.90998,2.988764,1.215988
1112,-0.088807,1.144351,0.966038
1113,0.541099,-0.646578,0.421812
1114,1.093082,0.291613,0.165932
1115,1.214475,1.501374,-0.444853
1116,0.821533,0.584876,0.359959
1117,-0.047335,-0.256863,-0.551399
1118,0.167579,-0.321286,-0.568504
1119,0.122806,-0.101144,-0.69521
1120,0.225532,0.290812,-0.372504
1121,0.108364,0.249241,-0.060489
1122,-0.167789,0.179788,0.096559
1123,-0.318942,-0.053572,0.608657
1124,0.168967,-0.394212,0.493095
1125,0.288579,-0.508662,0.461534
1126,0.52676,-0.367,0.241038
1127,0.348431,-0.131861,0.112189
1128,0.04578,-0.059096,0.396067
1129,-0.454031,-0.093012,0.5804
1130,-0.61067,-0.040598,0.29548
1131,-0.50314,-0.094822,0.262765
1132,-0.498161,0.012138,0.427509
1133,-0.620571,0.107957,0.253912
1134,-1.315706,0.031057,-0.061896
1135,-1.225475,0.256265,1.079559
1136,-0.847822,0.099379,0.243679
1137,-0.547892,0.160058,0.618693
1138,-0.434511,0.754702,0.660524
1139,0.01799,1.5676,-0.00686
1140,0.364408,1.29043,-0.042604
1141,0.282336,0.980461,0.438738
1142,0.244538,0.593521,0.565812
1143,0.190966,0.137338,0.259405
1144,0.091965,-0.244828,0.001398
1145,0.139502,-0.514738,-0.015072
1146,0.36507,-0.466236,-0.152148
1147,0.530363,-0.594249,-0.1947
1148,0.652622,-0.779558,-0.250678
1149,0.679077,-0.707059,-0.2893
1150,0.782849,-0.81064,-0.350151
1151,0.790074,-1.035433,-0.146993
1152,0.661862,-0.864496,0.225231
1153,-0.017928,-0.293775,0.869227
1154,-0.748965,1.070232,0.746805
1155,-0.626317,2.889308,1.072672
1156,0.227271,0.99573,0.747244
1157,0.545601,-0.604943,0.51266
1158,0.926523,-0.756298,0.656515
1159,0.82444,1.305034,-0.283913
1160,1.013047,1.230403,-0.315384
1161,-0.068624,-0.238981,-0.646223
1162,0.181684,-0.31055,-0.520273
1163,0.298888,-0.316717,-0.507728
1164,0.331662,0.128661,-0.362285
1165,0.228076,0.41664,-0.220011
1166,-0.126894,0.312719,-0.05998
1167,-0.193128,-0.061982,0.499428
1168,0.193782,-0.56656,0.764608
1169,0.35881,-0.533857,0.459056
1170,0.358561,-0.391723,0.145212
1171,0.191253,-0.120795,0.157487
1172,-0.172177,-0.101687,0.489797
1173,-0.383003,-0.096525,0.622981
1174,-0.693799,0.10843,0.249099
1175,-0.545844,0.031692,0.351471
1176,-0.319818,-0.035762,0.536523
1177,-0.441698,0.094083,0.304496
1178,-1.338575,-0.013309,-0.128559
1179,-1.285742,0.174289,0.937642
1180,-0.714147,0.190008,0.233631
1181,-0.508648,0.427761,0.37466
1182,-0.402152,0.851986,0.760629
1183,0.038681,1.421831,0.14173
1184,0.460709,1.27723,0.004752
1185,0.470926,0.942117,0.336796
1186,0.370927,0.726727,0.527943
1187,0.224329,0.338043,0.50936
1188,0.085084,-0.000643,-0.014729
1189,-0.067553,-0.315183,-0.029847
1190,0.227344,-0.506698,-0.133043
1191,0.481063,-0.540187,-0.163994
1192,0.748669,-0.814351,-0.231813
1193,0.777052,-0.751978,-0.259783
1194,0.78007,-0.746156,-0.294388
1195,0.825577,-1.041781,-0.028178
1196,0.537529,-0.77839,0.345942
1197,0.130041,-0.476377,0.66775
1198,-1.058319,2.070646,0.939526
1199,-0.504276,2.252563,1.319124
1200,0.280201,-0.066605,0.523382
1201,1.136442,-0.478411,0.601841
1202,0.804143,1.14515,0.102823
1203,1.021446,1.552977,-0.543475
1204,0.379846,0.028297,-0.05018
1205,0.177655,-0.206741,-0.500987
1206,0.262813,-0.16652,-0.589203
1207,0.227276,0.172806,-0.43548
1208,0.277639,0.434222,-0.148458
1209,0.129224,0.392711,-0.142464
1210,-0.27497,0.11195,0.342809
1211,-0.352057,-0.100899,0.602032
1212,-0.007869,-0.492616,0.576035
1213,0.368986,-0.513876,0.275389
1214,0.290223,-0.271488,0.200027
1215,0.214161,-0.152736,0.206541
1216,-0.160302,-0.046498,0.582453
1217,-0.651367,-0.014936,0.40063
1218,-0.687282,0.054546,0.297087
1219,-0.506975,0.027391,0.496177
1220,-0.658826,0.078974,0.115957
1221,-1.036501,0.031527,-0.145189
1222,-1.392978,0.097926,-0.143512
1223,-0.870743,0.297128,0.309396
1224,-0.681929,0.352168,0.415563
1225,-0.449153,0.329802,0.389131
1226,-0.02075,1.191702,0.208745
1227,0.041143,1.194638,0.168224
1228,0.602642,1.089833,0.160785
1229,0.462745,0.796044,0.574404
1230,0.35333,0.565648,0.577371
1231,0.174721,0.087047,0.245672
1232,-0.006432,-0.236522,0.00773
1233,0.100228,-0.575104,-0.002794
1234,0.302138,-0.594528,-0.157767
1235,0.596679,-0.763366,-0.15735
1236,0.619268,-0.746503,-0.198477
1237,0.662279,-0.690674,-0.258215
1238,0.686617,-0.810774,-0.210475
1239,0.640808,-0.915926,-0.091755
1240,0.288389,-0.759808,0.618777
1241,-0.503655,0.224928,1.180509
1242,-0.750047,1.040456,0.575253
1243,-0.333617,2.123953,1.252376
1244,0.313305,-0.185422,0.609574
1245,0.56823,-0.731685,0.509933
1246,1.018099,0.770167,-0.250639
1247,1.311467,1.373789,-0.517891
1248,1.201279,1.00985,0.163111
1249,-0.087281,0.023831,-0.659973
1250,0.143917,-0.279141,-0.658701
1251,0.14099,-0.30159,-0.556232
1252,0.129974,0.12455,-0.130451
1253,-0.0368,0.523268,-0.231019
1254,-0.214915,0.409063,0.014675
1255,0.037885,-0.484559,0.823452
1256,0.268996,-0.545341,0.426408
1257,0.342455,-0.52052,0.297564
1258,0.431028,-0.178162,-0.001203
1259,0.267366,0.043104,0.514671
1260,-0.366385,-0.008796,0.730916
1261,-0.613796,-0.078334,0.277825
1262,-0.62534,-0.000882,0.274155
1263,-0.565846,0.131952,0.521565
1264,-0.643753,0.176916,0.443612
1265,-1.351544,-0.120862,-0.166203
1266,-1.260478,0.045413,0.748231
1267,-0.735002,0.192381,0.310648
1268,-0.422037,0.208198,0.619025
1269,-0.365936,0.766745,0.740226
1270,-0.111843,1.461305,-0.090476
1271,0.280305,1.332616,-0.001637
1272,0.336685,1.260551,0.223927
1273,0.324651,0.761553,0.593142
1274,0.218704,0.365093,0.443851
1275,0.118132,-7.30E-05,-0.058247
1276,-0.062762,-0.269753,-0.100152
1277,0.270299,-0.420136,-0.233748
1278,0.74225,-0.616216,-0.20055
1279,0.821855,-0.727332,-0.266055
1280,0.743218,-0.746477,-0.31583
1281,0.743069,-0.740544,-0.354186
1282,0.778217,-1.094956,0.055719
1283,0.413291,-0.786979,0.362757
1284,0.00241,-0.518153,0.614795
1285,-0.599667,1.20049,0.741684
1286,-0.162834,2.867274,1.365013
1287,0.313574,2.025369,1.175487
1288,0.407037,-0.414082,0.509079
1289,0.147793,1.364747,0.158971
1290,0.366132,1.798272,-0.905911
1291,1.229947,-0.181182,0.495544
1292,0.66267,-0.380156,0.020705
1293,0.557687,-0.407287,-0.298364
1294,0.308541,0.155384,-0.825231
1295,0.147749,0.702998,-0.238037
1296,0.037668,0.678817,-0.090075
1297,-0.453126,0.153456,0.348313
1298,-0.403649,-0.449519,0.997718
1299,-0.068812,-0.549654,0.664975
1300,0.437746,-0.625908,0.167869
1301,0.56478,-0.322933,-0.113618
1302,0.524106,-0.099552,0.174484
1303,-0.568406,0.010204,0.64545
1304,-0.794108,-0.019272,0.234329
1305,-0.600401,0.061894,0.189222
1306,-0.269093,-0.130459,0.47857
1307,-0.798301,0.3047,0.336278
1308,-0.807689,0.30745,0.341989
1309,-1.157886,0.269519,0.340165
1310,-0.899297,0.341524,0.356936
1311,-0.946333,0.443066,0.091423
1312,-0.34128,0.647152,0.374174
1313,-0.175925,0.977892,0.817713
1314,0.055294,1.102756,0.831722
1315,0.648782,0.946976,0.067606
1316,0.680112,0.857488,0.245472
1317,0.645802,0.849712,0.330321
1318,0.350029,0.384757,0.459342
1319,0.154601,0.068703,0.199252
1320,0.09338,-0.029735,0.071857
1321,0.047782,-0.431837,-0.070901
1322,0.42439,-0.787712,-0.097858
1323,0.453622,-0.820649,-0.132882
1324,0.659368,-0.839145,-0.237579
1325,0.759696,-0.896122,-0.309679
1326,0.737782,-0.95717,-0.30383
1327,0.635171,-0.874097,0.01957
1328,0.280312,-0.632781,0.49284
1329,-0.422788,0.269942,1.180521
1330,-0.59357,1.659216,0.721615
1331,-0.180763,2.284159,1.33719
1332,0.110146,1.177443,0.896041
1333,1.202692,0.2292,0.704492
1334,0.687623,1.816,0.210249
1335,1.05374,2.065393,-0.506054
1336,0.454373,-0.615359,-0.294081
1337,0.574808,-0.782421,-0.349907
1338,0.389708,-0.442048,-0.737569
1339,0.21688,0.279694,-0.68836
1340,-0.022695,1.029162,-0.096155
1341,-0.246573,0.909483,0.002368
1342,-0.589054,0.064672,0.497037
1343,-0.106565,-0.386661,0.37381
1344,0.125484,-0.499897,0.316438
1345,0.62594,-0.428808,0.411391
1346,0.540939,-0.301178,0.382328
1347,0.417481,-0.169842,0.328466
1348,0.128082,-0.023979,0.457031
1349,-0.498771,-0.112306,0.579628
1350,-0.609239,-0.11348,0.396376
1351,-0.626218,0.08172,0.643014
1352,-0.592528,0.065027,0.388541
1353,-0.600833,0.060166,0.37954
1354,-1.14704,0.209198,0.449008
1355,-0.970748,0.307265,0.669801
1356,-0.951418,0.291863,0.636205
1357,-0.502972,0.449313,0.545024
1358,-0.3098,1.429695,0.427015
1359,0.04342,1.684835,0.081613
1360,0.389764,1.379198,0.184497
1361,0.372808,1.119569,0.461335
1362,0.320246,0.957307,0.580042
1363,0.089438,0.110711,0.150359
1364,-0.1366,-0.181649,0.110029
1365,-0.061535,-0.340415,0.052921
1366,0.485762,-0.443739,-0.24669
1367,0.725851,-0.785262,-0.244828
1368,0.838186,-0.827183,-0.241196
1369,0.828233,-0.735848,-0.208146
1370,0.792208,-0.893853,-0.263871
1371,0.82677,-0.992665,-0.01045
1372,0.631259,-0.878549,0.280405
1373,-0.268222,-0.121759,0.856193
1374,-0.848592,0.786973,1.220546
1375,-0.632841,2.923154,1.636343
1376,0.185176,0.118009,0.584082
1377,0.560943,-0.670623,0.420182
1378,0.714581,0.952318,-0.147106
1379,1.281172,1.27935,-0.465885
1380,0.967737,0.615814,0.343923
1381,0.216305,-0.195969,-0.548898
1382,0.270541,-0.185779,-0.757262
1383,0.26429,0.091014,-0.662732
1384,0.084974,0.572948,-0.052393
1385,-0.159588,0.457797,0.103567
1386,-0.33735,0.363636,0.454972
1387,0.185548,-0.379078,0.431406
1388,0.361637,-0.544524,0.330008
1389,0.439409,-0.512569,0.328956
1390,0.399635,-0.065849,0.248485
1391,0.378198,-0.001031,0.41739
1392,0.239077,0.000298,0.604522
1393,-0.548793,-0.115538,0.396749
1394,-0.655525,-0.04098,0.364761
1395,-0.716968,0.03107,0.422363
1396,-0.820737,0.145865,0.264188
1397,-1.317511,0.151016,-0.186389
1398,-1.340845,0.321828,0.263676
1399,-0.851466,0.366841,0.107406
1400,-0.55431,0.267893,0.30759
1401,-0.387308,0.179823,0.463357
1402,-0.206968,0.944261,0.690555
1403,0.294114,1.166325,0.073266
1404,0.454232,1.165159,-0.021676
1405,0.529549,1.049952,0.439661
1406,0.333119,0.52565,0.580728
1407,0.112303,0.132172,0.334008
1408,-0.094728,-0.10617,0.046107
1409,0.061118,-0.558156,-0.069864
1410,0.236893,-0.636381,-0.224715
1411,0.579382,-0.747625,-0.173623
1412,0.751579,-0.720007,-0.218414
1413,0.771998,-0.702871,-0.263348
1414,0.811851,-0.752693,-0.247463
1415,0.637884,-0.880132,0.106835
1416,0.620419,-0.894791,0.112839
1417,-0.158315,-0.38686,0.854177
1418,-0.632747,1.299786,0.550033
1419,-0.65307,1.287315,0.535354
1420,0.207283,1.48139,1.089144
1421,0.501878,-0.635269,0.533722
1422,0.517902,-0.62351,0.530082
1423,1.116729,1.310171,-0.852949
1424,1.001057,0.907817,0.702348
1425,0.131897,0.326319,0.090001
1426,0.353588,-0.291355,-0.585194
1427,0.255473,-0.170705,-0.690202
1428,0.15868,0.005048,-0.470818
1429,0.130382,0.549182,-0.208128
1430,-0.228526,0.293531,0.11842
1431,-0.307843,0.119555,0.431871
1432,0.13619,-0.551402,0.702314
1433,0.3146,-0.533874,0.413111
1434,0.394939,-0.524084,0.288628
1435,0.327228,0.028955,0.533849
1436,-0.074529,0.071445,0.778909
1437,-0.529104,0.002113,0.726956
1438,-0.709822,-0.029808,0.225368
1439,-0.57162,0.038343,0.542786
1440,-0.422274,0.057559,0.520559
1441,-0.710768,0.00053,-0.029138
1442,-1.379267,0.199098,-0.080337
1443,-0.983932,0.402527,1.380621
1444,-0.654802,0.092796,0.437518
1445,-0.394288,-0.191553,0.769879
1446,-0.310469,0.633394,0.628221
1447,-0.04927,1.815661,-0.152781
1448,0.335461,1.478888,0.196368
1449,0.489122,1.300478,0.509824
1450,0.401466,0.72433,0.6686
1451,0.264509,0.33782,0.49599
1452,0.06253,-0.080976,0.004038
1453,-0.13326,-0.49348,0.156491
1454,0.051834,-0.529256,0.057824
1455,0.211279,-0.522846,-0.03918
1456,0.652015,-0.879337,-0.226071
1457,0.681374,-0.725082,-0.233377
1458,0.707374,-0.657333,-0.280165
1459,0.812662,-0.90351,-0.18781
1460,0.693921,-0.864223,0.211361
1461,0.661727,-0.891189,0.244901
1462,-0.378684,0.367618,1.169687
1463,-0.784758,2.469134,1.179749
1464,-0.721021,3.235759,1.467375
1465,1.097904,-0.651306,0.59251
1466,0.710904,1.412933,0.657853
1467,0.901014,2.308448,-0.050186
1468,0.364832,-0.671313,-0.292411
1469,0.544103,-0.692759,-0.454315
1470,0.520573,-0.716106,-0.520688
1471,0.31305,0.282483,-0.519932
1472,0.163434,0.817226,-0.375579
1473,-0.077604,0.968587,-0.108088
1474,-0.467632,0.11023,0.505811
1475,-0.121139,-0.459807,0.625473
1476,0.129714,-0.498613,0.527177
1477,0.546023,-0.522376,0.434395
1478,0.533977,-0.299211,0.204521
1479,0.486212,-0.163455,0.183791
1480,0.021296,-0.077474,0.521814
1481,-0.480674,-0.086759,0.5232
1482,-0.612938,-0.019973,0.456852
1483,-0.652028,0.077986,0.536439
1484,-0.694896,0.132524,0.473529
1485,-0.71843,0.172954,0.223544
1486,-1.383716,0.127001,0.189467
1487,-0.859878,0.203392,0.936905
1488,-0.755567,0.099587,0.110323
1489,-0.441977,0.595754,0.575026
1490,-0.243992,1.464093,0.620243
1491,0.184145,1.607798,0.137703
1492,0.572085,1.158718,0.351462
1493,0.444318,0.855329,0.489691
1494,0.418103,0.653802,0.59907
1495,0.012805,0.010444,0.322614
1496,-0.275765,-0.269298,0.181188
1497,-0.217449,-0.380557,0.150495
1498,0.178517,-0.628018,-0.0847
1499,0.620534,-0.889734,-0.233877
1500,0.773708,-0.947349,-0.232296
1501,0.823754,-0.611182,-0.315426
1502,0.886602,-0.803084,-0.174087
1503,0.834616,-0.98068,-0.058333
1504,0.489451,-0.86921,0.419574
1505,-0.773684,0.944137,1.063684
1506,-0.992736,2.225916,0.982748
1507,-0.557205,2.325115,1.234014
1508,0.607153,-0.712921,0.497346
1509,0.862567,-0.980631,0.469787
1510,1.398458,0.213846,-0.039239
1511,1.445139,1.886839,-0.110243
1512,0.546482,1.655895,0.55575
1513,0.120446,-0.309836,-0.574787
1514,0.252728,-0.607067,-0.639158
1515,0.258702,-0.446781,-0.578775
1516,0.37464,0.524445,-0.144884
1517,0.08674,0.643317,-0.209159
1518,-0.270844,0.306696,0.599325
1519,-0.005576,-0.406572,0.847923
1520,0.188194,-0.520742,0.411717
1521,0.456933,-0.473245,0.271951
1522,0.555521,-0.068487,0.062506
1523,0.461815,-0.000508,0.451101
1524,0.14045,0.05209,0.737113
1525,-0.648776,0.073941,0.424603
1526,-0.704106,0.011409,0.414776
1527,-0.728847,0.020381,0.444537
1528,-0.820454,0.024298,0.1675
1529,-1.431608,0.017441,-0.093514
1530,-1.36998,0.266574,0.47256
1531,-0.738098,0.119018,0.100191
1532,-0.516522,0.143633,0.575995
1533,-0.381239,0.291515,0.641459
1534,-0.01678,1.3913,0.117313
1535,0.4542,1.458684,-0.001826
1536,0.521004,1.393974,0.235923
1537,0.430921,0.851048,0.676951
1538,0.219017,0.302716,0.505645
1539,0.109386,0.096705,0.208118
1540,-0.156017,-0.463239,0.073077
1541,0.103657,-0.676071,-0.119908
1542,0.404634,-0.722719,-0.223321
1543,0.881918,-0.824556,-0.237184
1544,0.85025,-0.649167,-0.162597
1545,0.900899,-0.682444,-0.145562
1546,0.730442,-0.939623,0.036433
1547,0.427692,-0.827645,0.402251
1548,0.068042,-0.558507,0.677791
1549,-0.783387,0.712458,0.877937
1550,-0.855287,2.587128,1.065266
1551,-0.504873,2.546012,1.422142
1552,0.532587,-0.662725,0.541238
1553,1.087423,0.601447,0.048309
1554,0.833181,1.190288,-0.367181
1555,1.055638,1.229444,0.461397
1556,-0.093953,-0.237544,-0.457662
1557,0.122751,-0.34211,-0.502277
1558,0.371842,-0.115978,-0.740259
1559,0.429532,0.232716,-0.24484
1560,0.343573,0.473776,-0.089688
1561,-0.124157,0.318904,0.213
1562,-0.345509,-0.130415,0.938062
1563,-0.03489,-0.378019,0.696705
1564,0.349486,-0.536851,0.260055
1565,0.584944,-0.365177,-0.078827
1566,0.488607,-0.170919,0.378418
1567,-0.297506,-0.010986,0.869407
1568,-0.712469,0.055064,0.476254
1569,-0.556016,0.087393,0.345139
1570,-0.510803,0.02797,0.441455
1571,-0.509196,0.083399,0.393559
1572,-0.822746,0.028574,-0.158631
1573,-1.283646,0.320801,0.164899
1574,-0.791898,0.514605,1.256177
1575,-0.607457,0.235335,0.264876
1576,-0.587059,0.216954,0.696565
1577,-0.33598,0.825367,0.732459
1578,-0.157243,1.181718,0.320087
1579,0.37311,1.295388,0.093413
1580,0.431477,1.054093,0.370209
1581,0.352567,0.88502,0.540154
1582,0.259958,0.53001,0.622707
1583,0.111329,0.032216,0.073649
1584,-0.126571,-0.301489,0.047289
1585,-0.005743,-0.577937,0.006319
1586,0.520536,-0.67583,-0.193999
1587,0.563315,-0.650999,-0.237158
1588,0.73984,-0.687966,-0.181138
1589,0.837432,-0.741784,-0.151931
1590,0.841828,-0.735941,-0.189093
1591,0.533133,-0.775765,0.325702
1592,0.256753,-0.6074,0.554295
1593,-0.273585,0.312315,1.096025
1594,-0.608432,2.096503,1.031719
1595,0.03251,1.806497,1.26974
1596,0.290481,-0.334258,0.484827
1597,0.470075,0.713232,0.17254
1598,1.005987,1.722057,-0.544926
1599,1.199749,1.405042,-0.187534
1600,0.471177,-0.358057,-0.140058
1601,0.408236,-0.499686,-0.554868
1602,0.36789,-0.407647,-0.745266
1603,0.344343,0.632888,-0.322271
1604,0.120324,0.557712,-0.135352
1605,-0.052023,0.350986,0.015971
1606,-0.091666,-0.387694,0.809795
1607,0.118027,-0.419908,0.576906
1608,0.191252,-0.480069,0.44304
1609,0.37445,-0.403729,0.152167
1610,0.274298,-0.172782,0.230516
1611,-0.161752,-0.053438,0.702537
1612,-0.504081,-0.079948,0.654808
1613,-0.512506,0.058432,0.409139
1614,-0.415939,0.10373,0.481722
1615,-0.473675,0.18642,0.386986
1616,-1.030563,0.130139,-0.054518
1617,-1.259119,0.282282,0.454224
1618,-0.699687,0.260404,0.679623
1619,-0.481407,0.144184,0.327401
1620,-0.448142,0.521852,0.701815
1621,-0.414408,1.397094,0.758387
1622,-0.054194,1.549219,0.319123
1623,0.505744,1.334409,-0.020659
1624,0.545023,0.872877,0.49855
1625,0.275025,0.54993,0.731759
1626,0.037867,0.19952,0.195145
1627,-0.165801,-0.16944,0.093829
1628,0.149453,-0.557755,-0.164478
1629,0.41756,-0.54988,-0.239506
1630,0.721283,-0.755901,-0.316771
1631,0.847562,-0.764701,-0.118085
1632,0.840905,-0.740253,-0.131409
1633,0.740375,-1.004261,-0.093006
1634,0.700047,-0.941716,0.057247
1635,0.576134,-0.816161,0.275255
1636,-0.586818,0.728628,1.371042
1637,-0.842595,2.354441,0.986035
1638,-0.522092,2.654506,1.264398
1639,0.126877,0.286724,0.654602
1640,1.316709,-0.292111,0.66302
1641,1.033854,0.628585,0.310082
1642,1.317205,1.584461,-0.331802
1643,-0.099049,0.313668,-0.039029
1644,-0.175182,0.005203,-0.617963
1645,0.226022,-0.184251,-0.743109
1646,0.30016,-0.088838,-0.40993
1647,0.29601,-0.059479,-0.108832
1648,-0.201006,0.470149,0.079847
1649,-0.423438,0.463349,0.485048
1650,-0.491819,0.167346,0.776618
1651,0.21954,-0.593917,0.4448
1652,0.484294,-0.570968,0.402218
1653,0.543931,-0.481565,0.322711
1654,0.452634,-0.018891,0.364512
1655,-0.225851,0.044309,0.673435
1656,-0.579842,0.012427,0.626902
1657,-0.558009,0.13745,0.317712
1658,-0.559323,0.023994,0.400472
1659,-0.544688,0.046855,0.411484
1660,-1.072494,0.301485,-0.039585
1661,-1.149278,0.432671,0.408457
1662,-0.899226,0.371092,0.899215
1663,-0.608817,0.065992,0.161624
1664,-0.4458,0.129504,0.670991
1665,-0.452223,0.733266,0.824448
1666,-0.141592,1.254199,0.283369
1667,0.265143,1.342323,0.034257
1668,0.406702,1.268615,0.094512
1669,0.364548,0.903758,0.683382
1670,0.099234,0.352587,0.476954
1671,0.035006,0.162719,0.143478
1672,-0.058432,-0.411144,0.035131
1673,0.27662,-0.601734,-0.092558
1674,0.486775,-0.578522,-0.171778
1675,0.811218,-0.795225,-0.184898
1676,0.875629,-0.846201,-0.115021
1677,0.886089,-0.837692,-0.152101
1678,0.786778,-1.082184,0.030014
1679,0.059017,-0.713905,0.554776
1680,0.031466,-0.7352,0.584452
1681,-0.733868,1.279245,0.789072
1682,-0.479582,2.994103,1.419498
1683,0.299072,0.427067,0.739164
1684,0.78236,-0.004799,0.507468
1685,0.608958,1.670945,-0.626935
1686,0.596984,1.661303,-0.563132
1687,0.475036,-0.45594,-0.039949
1688,0.425054,-0.393111,-0.1915
1689,0.316875,-0.280631,-0.749906
1690,0.177543,0.473334,-0.554485
1691,0.005315,0.486915,-0.022481
1692,-0.159335,0.328115,0.037743
1693,-0.488857,-0.102099,0.672238
1694,-0.061542,-0.470068,0.595428
1695,0.149362,-0.512917,0.478786
1696,0.647693,-0.304003,0.108029
1697,0.631878,-0.138532,0.296808
1698,0.458809,-0.022457,0.580091
1699,-0.523208,-0.032505,0.668257
1700,-0.660287,0.06693,0.316253
1701,-0.581542,0.028576,0.355052
1702,-0.498695,0.131354,0.473865
1703,-0.499044,0.196662,0.416052
1704,-1.060329,0.097509,-0.104981
1705,-0.843874,0.407385,0.623372
1706,-0.7305,0.310657,0.068835
1707,-0.463936,0.077448,0.572024
1708,-0.296761,0.407205,0.760284
1709,-0.176025,1.122441,0.507516
1710,0.126185,1.371346,0.117362
1711,0.530865,1.082011,0.294059
1712,0.429941,0.860961,0.446157
1713,0.368741,0.717397,0.548966
1714,0.106945,0.072575,0.226272
1715,-0.0972,-0.268377,0.030685
1716,-0.085365,-0.4739,0.052667
1717,0.337611,-0.550524,-0.040147
1718,0.632982,-0.565386,-0.084059
1719,0.718565,-0.631219,-0.162969
1720,0.812574,-0.735371,-0.105378
1721,0.826345,-0.830661,-0.080583
1722,0.795836,-0.888476,-0.003544
1723,0.46513,-0.787658,0.370289
1724,-0.673306,0.736758,1.070148
1725,-0.776194,1.745835,1.085451
1726,-0.421442,2.751542,1.591094
1727,0.278971,-0.702114,0.305337
1728,0.557089,-0.740359,0.316848
1729,0.678475,1.425606,-0.579393
1730,1.219268,1.565133,-0.717044
1731,0.773899,0.268798,0.68669
1732,0.478116,-0.306789,0.1124
1733,0.383707,-0.17387,-0.631644
1734,0.358644,-0.023651,-0.701653
1735,0.279635,0.481919,-0.362051
1736,-0.042311,0.211735,-0.021824
1737,-0.193335,0.094234,0.191437
1738,-0.420318,-0.114344,0.72058
1739,0.101626,-0.492689,0.398694
1740,0.336697,-0.436143,0.197042
1741,0.390976,-0.070706,0.047322
1742,0.373825,0.009708,0.335847
1743,0.312959,0.091352,0.860555
1744,-0.425852,0.120315,0.493755
1745,-0.306005,0.076301,0.263303
1746,-0.394329,0.088924,0.434994
1747,-0.776952,0.26687,0.547543
1748,-1.262558,0.108855,0.023891
1749,-1.435279,0.250322,0.024863
1750,-0.74028,0.295701,0.627715
1751,-0.497129,0.176651,0.379311
1752,-0.303257,0.281282,0.53545
1753,-0.211798,1.132289,0.74697
1754,0.299718,1.25382,0.029197
1755,0.524555,1.267301,-0.017687
1756,0.561228,1.13742,0.455238
1757,0.34973,0.698049,0.618897
1758,0.267555,0.439787,0.553991
1759,-0.046035,-0.108981,0.149608
1760,0.008955,-0.445534,0.067034
1761,0.158534,-0.500028,0.016512
1762,0.64074,-0.792845,-0.137803
1763,0.764111,-0.83597,-0.146921
1764,0.8144,-0.809142,-0.199051
1765,0.934039,-0.826972,-0.225875
1766,0.831726,-0.959207,-0.048391
1767,0.778171,-0.961429,0.114307
1768,-0.075723,-0.305536,0.739462
1769,-0.874481,1.239526,0.932903
1770,-0.956209,2.473178,1.072767
1771,0.162199,0.629377,0.937468
1772,0.732559,-0.983071,0.478733
1773,1.065144,-0.44411,0.161604
1774,0.886612,1.093342,-0.336634
