,userAcceleration.x,userAcceleration.y,userAcceleration.z
0,-0.192266,-0.314548,0.140341
1,-0.317614,-0.239819,0.360218
2,-0.236401,-0.227019,0.244517
3,-0.071177,-0.187674,0.006938
4,0.123018,0.1586,-0.361207
5,0.064859,0.01538,-0.070677
6,0.0787,-0.084392,0.028291
7,0.179449,-0.063341,-0.071038
8,0.431667,0.088408,-0.286446
9,0.525107,0.09894,-0.264273
10,0.533541,0.037264,-0.061387
11,0.429846,0.399536,0.059147
12,0.253944,0.569475,-0.048527
13,0.124252,0.434139,-0.013971
14,0.24953,0.190187,0.139376
15,0.232193,-0.045458,-0.034962
16,-0.168635,0.375182,-0.160405
17,-0.332435,0.625631,-0.044654
18,-0.516213,0.708176,0.323573
19,-0.649804,0.230387,0.318212
20,-0.701809,0.140015,0.329393
21,-0.558059,0.12899,0.269354
22,-0.041531,0.033876,0.23914
23,0.006075,-0.077741,0.216531
24,0.047807,-0.384096,0.069488
25,-0.065187,-0.486677,-0.019905
26,-0.10172,-0.519648,-0.054871
27,-0.117898,-0.688905,-0.085296
28,-0.498561,-0.439255,0.08136
29,-0.537449,-0.272796,0.370044
30,-0.491504,-0.271848,0.590371
31,-0.338551,-0.348622,0.561108
32,-0.100578,-0.304961,0.463411
33,0.342262,0.254061,-0.089903
34,1.090876,1.407831,-0.95457
35,0.90643,1.088341,-0.582074
36,0.596227,-0.091939,-0.27297
37,0.32875,-0.233185,0.187049
38,-0.189387,0.168056,0.003844
39,-0.24174,0.486761,0.314049
40,-0.162445,0.919377,0.183218
41,-0.253855,0.577948,0.189688
42,-0.349947,-0.271554,0.132702
43,-0.256284,-0.546962,0.121873
44,-0.069615,-0.503953,0.383908
45,-0.046806,-0.404236,0.492318
46,-0.314662,0.113392,0.400256
47,-0.354277,-0.005046,0.305397
48,-0.131944,-0.129122,0.136531
49,0.44622,-0.041362,-0.006279
50,0.477845,-0.161016,-0.06918
51,0.161415,-0.276551,0.152291
52,-0.246271,-0.150903,0.3432
53,-0.327076,-0.07621,0.15308
54,-0.154814,-0.213733,-0.23783
55,0.014234,0.025036,-0.182625
56,-0.036446,-0.012303,-0.042315
57,0.040307,-0.118377,0.026754
58,0.389886,0.077096,-0.201411
59,0.570731,0.20728,-0.24051
60,0.67734,0.058167,-0.246097
61,0.555289,0.104733,0.058368
62,0.477033,0.322523,0.084238
63,0.210057,0.464011,0.010249
64,0.113816,0.255291,0.121957
65,0.107142,0.101536,0.060548
66,-0.06753,0.139448,-0.221997
67,-0.201974,0.7156,-0.025376
68,-0.361431,0.645131,0.385766
69,-0.469253,0.376271,0.391635
70,-0.549576,0.331346,0.305709
71,-0.600257,0.108317,0.25742
72,-0.463297,0.196937,0.206628
73,-0.044805,-0.021499,0.189593
74,0.003018,-0.035797,0.098098
75,0.110542,-0.328029,-0.020018
76,0.029932,-0.435708,-0.014357
77,-0.043549,-0.498265,-0.012999
78,-0.579685,-0.466213,0.087864
79,-0.661228,-0.461917,0.184745
80,-0.55934,-0.399964,0.484019
81,-0.457343,-0.389909,0.547046
82,-0.278582,-0.44118,0.535416
83,-0.02975,-0.337271,0.424602
84,0.579263,0.830619,-0.813627
85,1.185481,1.746552,-0.558437
86,0.762832,0.481634,-0.462452
87,0.442159,-0.162931,-0.095595
88,0.220369,-0.244975,0.234972
89,-0.254015,0.368047,0.73455
90,-0.225764,0.584681,0.707888
91,-0.051641,1.151148,0.277022
92,-0.419839,0.244786,-0.097752
93,-0.517742,-0.2461,-0.02308
94,-0.389885,-0.5875,0.218367
95,-0.145804,-0.422786,0.52515
96,-0.120735,-0.186544,0.599853
97,-0.345058,0.145768,0.392694
98,-0.13316,0.061143,0.04837
99,0.136318,-0.158756,0.111397
100,0.180908,-0.359436,-0.058552
101,0.05724,-0.310528,0.005318
102,-0.026076,-0.278239,0.05719
103,-0.030021,-0.076711,0.357886
104,0.071542,-0.053175,0.190647
105,0.289197,-0.027036,-0.295973
106,-0.131359,0.034987,-0.191707
107,-0.100028,-0.087338,-0.073224
108,0.050578,-0.225117,0.042825
109,0.352784,-0.002535,-0.063697
110,0.509868,0.082024,-0.173499
111,0.600229,-0.003841,-0.266143
112,0.55028,0.282925,-0.018464
113,0.384163,0.448909,0.009045
114,0.100642,0.592107,0.054248
115,0.302785,0.300484,0.151936
116,0.303391,-0.001895,0.015834
117,0.190599,-0.149977,-0.046742
118,-0.18295,0.300255,-0.346995
119,-0.43083,0.647003,0.188367
120,-0.543512,0.579347,0.507676
121,-0.644055,0.535756,0.225933
122,-0.508946,0.13955,0.261598
123,-0.425342,0.062804,0.323648
124,-0.042485,0.012882,0.191781
125,0.047827,-0.079366,0.082476
126,0.053501,-0.226506,0.032592
127,-0.009615,-0.392942,0.045882
128,-0.088398,-0.536227,-0.009001
129,-0.259227,-0.646609,0.073163
130,-0.529777,-0.415017,0.209968
131,-0.526096,-0.329708,0.480494
132,-0.469658,-0.351465,0.542562
133,-0.346624,-0.393042,0.549473
134,0.01752,-0.23804,0.371653
135,0.305515,0.091622,0.06849
136,0.68801,0.647137,-0.47063
137,1.236837,1.458872,-0.559137
138,0.70813,-0.072571,-0.272605
139,0.432524,-0.253497,-0.080554
140,-0.062985,0.650507,0.169364
141,-0.29296,0.819216,0.820689
142,-0.141516,0.864905,0.643322
143,-0.467285,-0.126288,0.311905
144,-0.45612,-0.500018,0.306139
145,-0.382534,-0.605562,0.272197
146,-0.325598,-0.550137,0.283184
147,-0.227695,-0.149616,0.361078
148,0.144999,0.284157,0.305914
149,0.52474,0.262448,-0.0529
150,0.204512,0.017063,0.230225
151,0.005606,-0.457915,-0.081625
152,-0.096554,-0.399142,0.121071
153,-0.113425,-0.305584,0.31759
154,0.001317,-0.045561,0.232591
155,0.058305,-0.009083,-0.054874
156,0.062507,0.006579,-0.374911
157,-0.162735,-0.041995,-0.101224
158,-0.169197,-0.094208,0.028834
159,-0.028652,-0.07198,0.152542
160,0.460411,0.092664,0.089013
161,0.583176,0.043217,-0.025475
162,0.679644,-0.090343,-0.263549
163,0.616666,0.56319,-0.062478
164,0.128724,0.622712,0.097585
165,0.286253,0.334884,0.1311
166,0.340937,-0.01041,0.006328
167,0.078638,-0.079444,-0.049868
168,-0.180244,0.415574,-0.21025
169,-0.380977,0.663223,0.156966
170,-0.469234,0.493483,0.459924
171,-0.625249,0.599726,0.082472
172,-0.533013,0.221976,0.138209
173,-0.413177,-0.050478,0.158901
174,-0.334841,-0.047287,0.023484
175,-0.076244,-0.157494,0.062506
176,0.073363,-0.258037,0.02456
177,0.053911,-0.28182,0.110467
178,0.074734,-0.350695,-0.039583
179,0.088308,-0.416555,-0.084005
180,-0.011703,-0.422933,-0.088894
181,-0.485961,-0.345648,0.399564
182,-0.604473,-0.333811,0.508579
183,-0.578619,-0.343316,0.519963
184,-0.518116,-0.379234,0.465912
185,0.009371,-0.164994,-0.02112
186,0.467805,0.373037,-0.71592
187,0.839153,0.909393,-0.871897
188,0.935333,0.293624,-0.137452
189,0.781686,-0.050965,-0.076491
190,0.578688,-0.054082,-0.002862
191,-0.309919,1.199671,0.608429
192,-0.218386,1.103513,0.324414
193,-0.646838,-0.12573,0.383716
194,-0.551501,-0.43467,0.290654
195,-0.4535,-0.383987,0.089836
196,-0.318393,-0.325949,0.33899
197,-0.22528,0.077524,0.560527
198,0.333722,0.291593,0.23995
199,0.138051,0.048451,0.182423
200,-0.034366,-0.237677,0.05888
201,0.070449,-0.256306,-0.003111
202,0.045569,-0.443579,0.055856
203,-0.198543,-0.434895,0.131375
204,-0.250222,-0.435426,0.16997
205,0.12656,-0.180433,-0.028376
206,0.192198,0.025363,-0.286435
207,0.141799,0.064609,-0.26658
208,0.097146,-0.063401,0.027501
209,0.117691,-0.165107,0.08126
210,0.184386,-0.144507,0.007949
211,0.422494,0.108079,-0.162943
212,0.46754,0.190807,-0.05219
213,0.394273,0.330349,0.073021
214,0.119306,0.529741,-0.064213
215,0.200002,0.570839,0.070762
216,0.350849,0.365359,0.155061
217,0.351311,0.293676,0.113941
218,-0.01046,-0.10978,-0.16713
219,-0.11428,0.122445,-0.282777
220,-0.241832,0.742688,0.115675
221,-0.616015,0.364329,0.349788
222,-0.739722,0.106206,0.28963
223,-0.65912,0.02389,0.295901
224,-0.403083,0.086237,0.263761
225,-0.008442,0.022428,0.182162
226,0.137699,-0.098826,0.06699
227,0.143397,-0.237191,0.050302
228,0.032837,-0.398467,0.113267
229,-0.059023,-0.5133,0.128202
230,-0.449618,-0.470217,0.162824
231,-0.586504,-0.466121,0.248605
232,-0.468433,-0.428713,0.35778
233,-0.367907,-0.437867,0.444767
234,-0.196873,-0.496956,0.476082
235,0.245565,-0.144302,0.060481
236,0.891917,1.092891,-0.633538
237,0.985516,1.306685,-0.439955
238,0.600074,0.488961,-0.442586
239,0.308987,0.008991,-0.183166
240,-0.022074,-0.13251,0.035336
241,-0.269084,0.605936,0.882299
242,0.130539,1.362061,0.528161
243,-0.220467,0.359124,0.100488
244,-0.40509,-0.367152,0.085688
245,-0.412244,-0.634438,0.128317
246,-0.323188,-0.419119,0.67187
247,0.042175,-0.083727,0.829173
248,-0.481018,0.020309,0.101056
249,-0.430482,0.09063,0.000393
250,-0.152532,0.069802,0.11816
251,0.153593,-0.267104,0.171992
252,0.099673,-0.380995,0.120317
253,0.014443,-0.497623,0.020866
254,-0.136796,-0.263325,0.24002
255,-0.104845,0.063934,0.181924
256,0.265467,0.080906,-0.353456
257,0.060838,0.055428,-0.198138
258,-0.10542,-0.136155,0.00444
259,0.070186,-0.148699,0.040171
260,0.339905,0.042047,-0.079442
261,0.602693,0.031789,-0.139431
262,0.654052,-0.044302,-0.17959
263,0.621523,0.061188,-0.105633
264,0.602938,0.266584,-0.075106
265,0.16295,0.43011,-0.035181
266,0.203088,0.216894,0.135658
267,0.227645,-0.068272,0.128688
268,0.096905,-0.13741,-0.213031
269,-0.064723,0.484408,-0.159467
270,-0.225899,0.669677,0.126598
271,-0.483754,0.624963,0.753031
272,-0.677031,1.052494,0.23238
273,-0.486541,0.349665,0.171134
274,-0.398133,0.116884,0.196612
275,-0.059236,0.068614,0.002925
276,0.029502,-0.046085,-0.163493
277,0.058172,-0.184071,-0.123723
278,-0.051625,-0.526174,0.067578
279,-0.098197,-0.547366,0.08186
280,-0.156856,-0.58428,0.108784
281,-0.564374,-0.370233,0.437796
282,-0.582383,-0.339373,0.629341
283,-0.55818,-0.363122,0.672582
284,-0.45281,-0.421736,0.601718
285,-0.354437,-0.483987,0.510726
286,0.138662,0.290125,-0.395037
287,1.232066,2.007845,-0.892869
288,1.084614,1.22654,-0.089088
289,0.567447,0.100188,-0.122601
290,0.370208,-0.090842,-0.090619
291,-0.005966,-0.251013,-0.018349
292,-0.282335,0.665493,0.935389
293,-0.108944,0.931556,0.798006
294,-0.11397,0.826132,0.165079
295,-0.513205,-0.349641,0.119739
296,-0.588172,-0.523497,0.24739
297,-0.54811,-0.493388,0.374875
298,-0.395641,-0.169387,0.436317
299,-0.289707,0.138341,0.309716
300,0.112295,0.115441,0.393512
301,0.307169,-0.104069,0.25853
302,0.382697,-0.313773,-0.127564
303,0.317623,-0.38368,-0.196173
304,-0.015448,-0.218931,0.186033
305,-0.161318,0.013498,0.565605
306,-0.148,0.063958,0.461698
307,0.146364,-0.066002,-0.407362
308,0.075201,-0.085269,-0.284724
309,0.100996,-0.140558,-0.152654
310,0.162146,-0.229814,0.063925
311,0.204389,-0.198682,-0.047319
312,0.330661,-0.102314,-0.145841
313,0.491092,0.040943,-0.228478
314,0.126297,0.382614,0.101205
315,0.051484,0.542792,0.205552
316,0.136247,0.587557,0.083016
317,0.444671,0.548283,0.036223
318,0.417666,0.537015,0.061646
319,0.286305,0.393074,0.099744
320,-0.302771,-0.092726,-0.337747
321,-0.426169,0.18665,-0.218015
322,-0.456956,0.367815,0.033715
323,-0.51342,0.287894,0.36228
324,-0.496336,0.21268,0.379678
325,-0.499347,0.144287,0.416877
326,-0.17777,-0.04135,0.28556
327,-0.156378,-0.052771,0.317069
328,-0.004548,-0.238409,0.145611
329,-0.021105,-0.313761,0.001015
330,-0.033278,-0.344932,-0.037823
331,-0.098555,-0.523346,0.091676
332,-0.399052,-0.421592,0.16091
333,-0.497835,-0.334322,0.185973
334,-0.467498,-0.260632,0.346797
335,-0.327526,-0.363552,0.366867
336,-0.208331,-0.432648,0.313279
337,0.26275,-0.090946,0.20684
338,0.520375,0.281093,-0.026437
339,1.156633,1.393384,-0.66614
340,0.36362,0.152225,-0.2006
341,0.110657,0.088064,0.033226
342,0.140448,0.395685,0.196037
343,0.093192,1.121017,0.488896
344,0.023779,0.850635,0.337376
345,-0.373025,0.00089,0.273826
346,-0.631178,-0.381865,0.136264
347,-0.621414,-0.527859,0.117247
348,-0.416412,-0.428945,0.502186
349,-0.173588,-0.094203,0.469284
350,0.038195,0.188397,0.335172
351,0.136174,0.227319,0.233858
352,0.283771,-0.104052,-0.081956
353,0.208467,-0.293032,-0.024365
354,-0.007593,-0.257772,0.297497
355,-0.207627,-0.123576,0.482867
356,-0.261361,-0.124567,0.308462
357,-0.083461,-0.192507,-0.1646
358,0.116012,-0.115675,-0.32658
359,-0.225167,0.104545,-0.079576
360,-0.236886,0.04236,0.020719
361,-0.018829,-0.108086,0.107389
362,0.293683,0.019513,-0.052858
363,0.525962,0.140694,-0.122024
364,0.728266,-0.093281,-0.21216
365,0.569591,0.200188,-0.024985
366,0.340721,0.372421,0.048067
367,0.360351,0.341053,0.053893
368,0.306168,0.073662,-0.04372
369,0.086342,-0.07155,-0.079092
370,-0.138441,0.315469,-0.138306
371,-0.228335,0.623171,0.315226
372,-0.400791,0.715761,0.493158
373,-0.539614,0.721365,0.113227
374,-0.424425,0.256343,0.142343
375,-0.326904,0.097145,0.295522
376,-0.26397,0.072664,0.168637
377,-0.040424,-0.036274,0.103848
378,0.004201,-0.114181,0.053893
379,-0.021763,-0.258943,-0.028239
380,-0.097035,-0.415718,-0.054387
381,-0.295438,-0.565476,0.081346
382,-0.623888,-0.285361,0.314575
383,-0.590792,-0.232614,0.375247
384,-0.525365,-0.251327,0.497024
385,-0.467606,-0.311158,0.555685
386,-0.335103,-0.390639,0.49325
387,-0.02462,-0.217188,0.408242
388,1.274431,0.97043,-0.793861
389,1.371303,0.985296,-0.620845
390,0.541399,0.169021,-0.125009
391,0.263403,-0.066811,0.189744
392,0.122192,0.234499,-0.104124
393,-0.325443,0.742515,0.91131
394,-0.325147,1.185897,0.134524
395,-0.234204,0.153812,0.321191
396,-0.32037,-0.444591,0.229203
397,-0.443594,-0.183459,0.03268
398,-0.330589,-0.025658,0.339302
399,-0.316507,0.018773,0.491075
400,-0.470533,0.120323,0.313117
401,-0.168829,0.168656,0.085249
402,0.240225,-0.012492,4.40E-05
403,0.340347,-0.264404,-0.013463
404,0.25357,-0.380408,0.035953
405,-0.011048,-0.397226,0.240708
406,-0.292626,-0.141062,0.440358
407,-0.27825,-0.045061,0.201163
408,-0.048106,-0.036616,-0.204561
409,0.080029,8.50E-05,-0.147353
410,-0.118776,0.002312,0.045143
411,-0.0638,-0.073378,0.108675
412,0.023875,-0.124627,0.086245
413,0.487003,-0.010724,-0.12428
414,0.488238,-0.010754,-0.132324
415,0.467706,0.036395,-0.151414
416,0.247323,0.356646,0.031702
417,0.245817,0.357179,0.029168
418,0.354238,0.32628,0.10106
419,0.377157,0.071657,0.102333
420,0.330928,-0.172269,-0.023956
421,0.062691,0.005736,-0.249953
422,-0.201663,0.747921,0.215483
423,-0.340964,0.82586,0.465787
424,-0.49448,0.936525,0.589289
425,-0.420077,0.441351,0.111536
426,-0.238458,-0.07874,0.389339
427,-0.077311,-0.181803,0.352239
428,-0.014224,-0.087937,0.199916
429,0.041289,-0.1505,-0.058628
430,0.01579,-0.331357,-0.225534
431,-0.159358,-0.38771,-0.068853
432,-0.307827,-0.400729,0.167232
433,-0.528797,-0.199672,0.367451
434,-0.57285,-0.108503,0.392495
435,-0.584573,0.02494,0.523096
436,-0.540646,-0.138627,0.638459
437,-0.443357,-0.256995,0.596806
438,-0.130035,-0.240176,0.525042
439,0.951953,0.69047,-0.143455
440,1.35803,0.979863,-0.836455
441,0.694695,0.05277,-0.554771
442,0.359213,-0.180246,0.075959
443,0.006867,-0.319777,0.318795
444,-0.061227,-0.030632,0.639772
445,0.125123,0.917157,1.031244
446,0.250959,1.558255,-0.391347
447,-0.127256,0.904286,-0.383251
448,-0.611898,-0.07124,0.161666
449,-0.574489,-0.378339,0.249768
450,-0.49072,-0.515734,0.337555
451,-0.175361,-0.134809,0.677737
452,0.07894,0.03428,0.541856
453,0.181166,-0.141215,0.262071
454,0.178575,-0.409234,-0.053841
455,0.243841,-0.511555,-0.239364
456,0.128805,-0.444557,-0.283127
457,-0.19077,-0.034301,0.322886
458,-0.132654,0.153457,0.410596
459,-0.074231,0.030751,0.292106
460,-0.011187,-0.204794,0.023084
461,-0.08949,-0.045489,-0.249987
462,-0.163722,0.042926,-0.112992
463,0.065454,-0.138058,0.134697
464,0.523929,-0.222447,0.185465
465,0.715208,-0.230805,0.115196
466,0.300225,-0.095325,-0.073993
467,0.208992,0.374761,-0.093323
468,0.238333,0.556042,0.003343
469,0.518887,0.157968,0.153206
470,0.483338,-0.08267,0.146218
471,0.387485,-0.125609,0.198506
472,-0.054341,-0.100629,-0.163604
473,-0.150272,0.376997,-0.0365
474,-0.281461,0.870306,0.250492
475,-0.555287,1.073745,0.178159
476,-0.542208,0.497651,-0.046353
477,-0.267746,-0.163698,0.197262
478,-0.060135,-0.252342,0.436293
479,0.066616,-0.066266,0.21248
480,0.028778,0.005082,0.125982
481,-0.018307,-0.019105,0.039047
482,-0.08088,-0.358645,-0.169485
483,-0.176639,-0.359373,0.027003
484,-0.280727,-0.345076,0.240513
485,-0.612915,-0.043861,0.339182
486,-0.587519,0.049252,0.437171
487,-0.535671,-0.051046,0.440589
488,-0.467385,-0.142305,0.403859
489,-0.203046,-0.293244,0.36316
490,1.249857,0.088464,-0.131431
491,1.682128,0.496863,-0.476748
492,1.164398,0.096565,-0.564732
493,0.327632,-0.087064,-0.013869
494,-0.070312,-0.000633,-0.41036
495,-0.310926,0.67574,0.977727
496,-0.031156,1.149687,0.934195
497,-0.226659,0.901352,-0.206833
498,-0.54455,0.135351,0.105238
499,-0.385219,-0.354347,0.153984
500,0.11948,-0.580365,0.459117
501,-0.237647,-0.471589,0.299035
502,-0.409758,-0.058483,0.058978
503,-0.352053,0.200277,0.476686
504,-0.341407,-0.022294,0.451367
505,-0.140301,-0.291918,0.195019
506,0.1211,-0.441914,-0.130773
507,0.18734,-0.250114,0.031708
508,-0.10923,-0.009861,0.259595
509,-0.233818,0.047242,0.176772
510,-0.116342,0.021646,0.086702
511,-0.059188,-0.064577,-0.02332
512,-0.242318,0.030428,-0.038536
513,-0.074047,-0.107841,-0.036507
514,0.094037,-0.19014,-0.025836
515,0.569396,-0.152449,-0.12253
516,0.581991,-0.059244,-0.167297
517,0.563904,0.074365,-0.130105
518,0.319869,0.290343,0.075459
519,0.347016,0.312176,0.01885
520,0.384362,0.266699,0.093441
521,0.323273,-0.098131,-0.029036
522,0.122125,-0.136151,-0.048988
523,-0.07653,-0.094716,-0.109979
524,-0.120529,0.553436,0.008639
525,-0.328224,0.835043,0.401448
526,-0.507907,1.124244,0.509279
527,-0.437924,0.67076,0.138475
528,-0.270217,-0.083963,0.3358
529,0.026146,-0.214653,0.213006
530,0.027922,-0.019714,0.063827
531,0.022616,-0.027144,-0.052973
532,-0.103527,-0.369047,-0.19852
533,-0.272112,-0.418637,0.034113
534,-0.330791,-0.437347,0.134715
535,-0.507864,-0.369964,0.333305
536,-0.610641,-0.174103,0.462533
537,-0.609751,-0.127923,0.5095
538,-0.560094,-0.134144,0.676797
539,-0.470924,-0.234177,0.62826
540,-0.220249,-0.268002,0.53656
541,0.958174,0.368006,-0.154338
542,1.667061,0.968454,-0.879856
543,1.165869,0.265525,-0.75725
544,0.610751,-0.303559,-0.076391
545,0.254576,-0.143939,-0.090045
546,-0.114714,0.774846,1.309918
547,0.010984,1.2268,0.922042
548,-0.378884,0.816211,-0.289877
549,-0.664644,0.225406,0.02836
550,-0.714745,-0.090859,0.188346
551,-0.582745,-0.542723,0.310755
552,-0.407084,-0.579943,0.355332
553,-0.064122,-0.121802,0.461812
554,0.184642,0.037095,0.576648
555,0.211896,0.002227,0.524212
556,0.017516,-0.335089,0.201584
557,0.094742,-0.34552,-0.217339
558,0.077479,-0.125483,-0.146402
559,-0.212325,0.054729,0.158185
560,-0.198534,0.109642,0.313184
561,-0.057907,0.039959,0.232992
562,0.195468,-0.126874,-0.066856
563,-0.11476,-0.081702,-0.011997
564,-0.096685,-0.112507,-0.088139
565,0.455166,-0.200973,-0.182694
566,0.569528,-0.243776,-0.139968
567,0.600514,-0.261437,-0.07069
568,0.54106,-0.019913,-0.073061
569,0.224694,0.422639,-0.032557
570,0.167252,0.499142,-0.032986
571,0.373283,0.071973,0.226464
572,0.383313,-0.174007,-0.171561
573,0.160034,-0.087199,-0.174035
574,0.068387,0.465452,-0.028917
575,-0.182657,0.761171,0.479015
576,-0.394546,0.98574,0.747116
577,-0.49267,1.034315,-0.01868
578,-0.345837,0.149355,0.200818
579,-0.264362,-0.062886,0.351572
580,-0.134866,-0.172211,0.229883
581,-0.038784,-0.169852,-0.001174
582,-0.045796,-0.292195,-0.182228
583,-0.139775,-0.351052,-0.148422
584,-0.211918,-0.33053,-0.076913
585,-0.37954,-0.301498,0.255642
586,-0.518776,-0.132583,0.405047
587,-0.633354,0.002522,0.523735
588,-0.6622,0.04166,0.596491
589,-0.605514,-0.067353,0.514452
590,-0.414585,-0.157598,0.370697
591,-0.193651,-0.051754,0.190515
592,1.500625,0.509021,-0.010865
593,1.312762,0.788129,-0.774721
594,0.954804,0.016201,-0.525248
595,0.270785,-0.361949,-0.19894
596,0.200053,0.534331,0.396219
597,0.12175,1.154077,1.249813
598,0.151499,1.251487,0.695751
599,-0.443379,0.263883,0.071565
600,-0.593334,-0.313243,0.123559
601,-0.66599,-0.696598,0.16163
602,-0.652021,-0.818901,0.323326
603,-0.369138,-0.468384,0.450512
604,-0.181746,-0.10311,0.424132
605,-0.023824,0.227827,0.294839
606,0.01182,0.362316,0.214359
607,0.054008,-0.191826,0.214438
608,0.057991,-0.13146,0.228923
609,-0.038063,-0.073908,0.137463
610,-0.099513,-0.02704,0.035003
611,0.109843,-0.169547,0.012464
612,0.074984,-0.202628,0.037712
613,0.011515,-0.200506,0.025035
614,0.051316,0.050167,-0.052688
615,0.072804,-0.003603,-0.11382
616,0.146062,-0.07796,-0.156347
617,0.487947,-0.133863,-0.0944
618,0.540127,-0.165688,0.011773
619,0.526924,-0.141447,0.071587
620,0.348978,0.447379,0.117759
621,0.364222,0.404204,-0.128777
622,0.319143,0.29747,-0.120349
623,0.19556,-0.233743,0.090489
624,0.084851,-0.311278,-0.023248
625,-0.019652,0.390828,-0.071813
626,-0.191208,0.683756,0.383311
627,-0.319676,0.706027,0.590736
628,-0.337221,1.074979,-0.008411
629,-0.229709,0.375456,0.342377
630,-0.198845,0.131558,0.468233
631,-0.175206,-0.162309,0.250765
632,-0.135764,-0.265977,0.140566
633,-0.151446,-0.291036,0.054991
634,-0.207264,-0.341171,-0.164857
635,-0.255265,-0.294613,-0.05033
636,-0.29082,-0.256845,0.121526
637,-0.532317,-0.0418,0.384659
638,-0.609669,0.053289,0.496345
639,-0.650635,0.069966,0.523852
640,-0.639317,-0.004294,0.467596
641,-0.452095,-0.030424,0.397585
642,0.190712,0.38735,-0.344397
643,1.626588,0.56132,-0.127996
644,1.302531,0.450132,-0.423018
645,1.157515,-0.091178,-0.498144
646,0.464852,-0.637341,0.158969
647,0.429779,0.120132,-0.035983
648,0.087577,1.241543,0.9209
649,-0.374044,1.230474,0.16969
650,-0.861076,0.276901,-0.338588
651,-0.875133,-0.012346,-0.259143
652,-0.7656,-0.315859,0.357455
653,-0.270948,-0.014464,0.568079
654,-0.237895,-0.04722,0.538006
655,0.01873,0.167082,0.412856
656,0.151428,-0.234325,0.375363
657,0.149125,-0.23635,0.350747
658,0.25258,-0.584075,-0.157733
659,0.160045,-0.326371,-0.107485
660,-0.022063,-0.165519,0.10545
661,-0.123667,-0.030397,0.260346
662,-0.138782,0.114665,0.135951
663,-0.080194,-3.50E-05,-0.077032
664,0.031034,0.004581,-0.230726
665,-0.105919,-0.011739,-0.078664
666,0.058237,-0.195049,0.05282
667,0.187115,-0.290619,0.099416
668,0.396422,-0.269671,0.072131
669,0.576263,-0.123639,-0.05771
670,0.227726,0.228148,-0.124287
671,0.204396,0.436869,0.005821
672,0.35958,0.201703,0.102625
673,0.308104,-0.091923,0.121968
674,0.260524,-0.150991,0.064206
675,0.106749,-0.242037,-0.143523
676,0.013064,0.47634,-0.114972
677,-0.189557,0.819189,0.280723
678,-0.415658,0.96212,0.670198
679,-0.409084,0.849562,-0.003766
680,-0.199431,0.12742,0.266785
681,0.025243,-0.123319,0.289586
682,0.012262,-0.093756,0.098108
683,0.075349,-0.106798,-0.050309
684,0.030918,-0.269816,-0.389832
685,-0.15644,-0.251923,-0.00173
686,-0.406654,-0.074665,0.297479
687,-0.61049,-0.053232,0.378491
688,-0.70549,-0.05243,0.449255
689,-0.703922,-0.040162,0.568222
690,-0.611708,-0.10838,0.61788
691,-0.483337,-0.260615,0.468043
692,0.030524,-0.25627,-0.106829
693,1.315828,0.214718,-0.567608
694,2.190208,0.35146,-0.748228
695,1.085953,-0.109501,-0.394501
696,-0.108715,-0.096825,0.030406
697,-0.383394,0.180343,-0.460595
698,-0.325287,0.880382,1.304317
699,-0.23735,1.206016,1.102322
700,-0.252191,0.89288,0.23922
701,-0.478262,-0.295273,0.252622
702,-0.437245,-0.538315,0.12547
703,-0.301323,-0.746325,-0.076282
704,0.446744,-0.050729,1.147497
705,0.001191,0.219413,1.546096
706,-0.445449,0.174412,1.319355
707,-1.126802,0.244808,-0.689784
708,-0.563753,0.122584,-0.048249
709,-0.295299,0.106555,0.165865
710,0.027438,-0.361693,0.470607
711,0.106948,-0.433786,0.449002
712,0.207441,-0.49191,0.401237
713,0.397366,-0.200261,-0.343321
714,0.395647,0.005328,-0.567218
715,0.329341,0.144384,-0.468182
716,-0.086197,0.015788,0.107795
717,-0.26414,-0.09629,0.227508
718,0.039497,-0.170285,-0.00042
719,0.461584,-0.111703,-0.043628
720,0.507045,-0.223601,-0.118189
721,0.514224,-0.025714,-0.001318
722,0.412668,0.281979,0.040048
723,0.394822,0.267583,0.00186
724,0.430269,0.145527,0.166811
725,0.29421,0.046748,0.149916
726,0.119363,-0.000855,0.112955
727,-0.234902,0.187497,-0.26367
728,-0.209664,0.686184,0.250327
729,-0.305397,0.756473,0.447994
730,-0.496757,0.909857,0.258703
731,-0.384418,0.437245,0.204123
732,-0.199874,0.009729,0.423032
733,-0.018676,-0.157592,0.345348
734,-0.070581,-0.156102,0.227382
735,-0.075923,-0.217631,0.026724
736,-0.054326,-0.279066,-0.279509
737,-0.115284,-0.268481,-0.209449
738,-0.230798,-0.245662,0.155545
739,-0.380413,-0.113853,0.344923
740,-0.506452,0.060036,0.442861
741,-0.537901,0.074805,0.581234
742,-0.573793,0.00933,0.621125
743,-0.527222,-0.17535,0.551458
744,-0.267304,-0.265071,0.374649
745,0.647577,0.218842,-0.470701
746,1.572312,0.800271,-0.67615
747,1.394562,0.647174,-0.738414
748,0.60407,-0.347669,0.01451
749,0.104294,-0.356636,-0.028526
750,0.165276,0.068917,-0.030027
751,0.166103,1.131003,1.09868
752,0.055547,1.129428,-0.375495
753,-0.348979,0.684524,-0.090819
754,-0.734464,-0.115267,0.179121
755,-0.658223,-0.516207,0.422903
756,-0.337831,-0.536084,0.605363
757,-0.056629,-0.463519,0.739659
758,-0.078706,0.279854,0.195103
759,-0.141155,0.335616,-0.078077
760,-0.09102,0.126988,-0.091106
761,0.156982,-0.371959,0.006085
762,0.157491,-0.373803,-0.004082
763,0.072172,-0.234302,0.240008
764,-0.210987,-0.010702,0.282193
765,-0.241704,0.003383,0.132615
766,-0.149858,-0.023419,0.045522
767,-0.177587,0.029325,-0.063207
768,-0.138657,-0.10058,0.045553
769,0.167396,-0.147521,0.039761
770,0.419467,-0.11933,0.085967
771,0.498473,-0.246184,0.044257
772,0.528698,-0.199228,0.017051
773,0.361109,0.233064,-0.006455
774,0.294476,0.377597,-0.009324
775,0.466062,0.245455,0.118585
776,0.376086,0.076581,0.150025
777,0.173846,-0.017986,0.146319
778,-0.087381,0.278488,-0.081447
779,-0.182001,0.657286,0.246508
780,-0.384718,0.884062,0.459093
781,-0.544236,1.002601,0.21895
782,-0.503421,0.666515,-0.001663
783,-0.305357,-0.078882,0.238752
784,0.034227,-0.249556,0.270943
785,0.040859,-0.088891,0.138969
786,0.053068,-0.117525,-0.174162
787,0.092442,-0.200583,-0.287042
788,0.035061,-0.239795,-0.028005
789,-0.269817,-0.23717,0.356287
790,-0.584475,-0.004772,0.356074
791,-0.652709,0.089713,0.484579
792,-0.651543,0.071579,0.490086
793,-0.638492,-0.015267,0.481212
794,-0.520954,-0.20928,0.364499
795,-0.066728,-0.25316,0.242135
796,1.159936,0.126324,-0.396692
797,1.870491,0.343562,-0.648718
798,1.131547,-0.154555,-0.281113
799,0.34682,-0.236118,0.103354
800,0.156238,0.181578,-0.149764
801,-0.069513,0.767885,0.886185
802,0.003879,1.286937,0.919875
803,-0.486961,0.678019,0.123523
804,-0.57849,0.34372,0.356653
805,-0.636472,-0.440411,0.508331
806,-0.571009,-0.669072,0.473127
807,-0.465719,-0.476572,0.517851
808,-0.375253,-0.266133,0.528063
809,0.144471,0.341291,0.401436
810,0.166543,0.24063,0.184594
811,0.102993,0.077238,0.007531
812,-0.040956,-0.337055,0.105805
813,-0.091511,-0.259474,0.247277
814,-0.139356,-0.176115,0.382212
815,-0.0868,-0.228891,0.187144
816,0.165111,-0.174833,-0.298709
817,0.194225,-0.044942,-0.296876
818,-0.040875,-0.075358,0.070447
819,-0.003366,-0.052344,0.050342
820,0.404181,-0.085221,-0.192105
821,0.501705,-0.187259,-0.152908
822,0.517938,-0.207644,-0.051597
823,0.537137,0.074394,0.041653
824,0.218519,0.603921,-0.040516
825,0.192657,0.632991,-0.006851
826,0.312006,-0.056658,0.110489
827,0.292982,-0.42601,-0.010813
828,0.22962,-0.446158,-0.114203
829,0.090108,0.571202,-0.052227
830,-0.173248,0.764334,0.62293
831,-0.429355,1.070928,0.908341
832,-0.516186,1.270555,0.073261
833,-0.396596,0.278053,0.349874
834,-0.280412,-0.012746,0.410117
835,-0.123887,-0.025993,0.215411
836,-0.014656,-0.143775,-0.15424
837,-0.086183,-0.34195,-0.20508
838,-0.232434,-0.39657,-0.093134
839,-0.302956,-0.388145,0.083913
840,-0.384416,-0.343671,0.311588
841,-0.444709,-0.283419,0.395357
842,-0.712654,-0.038672,0.630372
843,-0.7033,-0.078638,0.6
844,-0.655155,-0.106392,0.598732
845,-0.364861,-0.052077,0.320047
846,-0.012198,0.166048,-0.110801
847,1.87826,0.936339,-0.339705
848,1.137329,0.342653,-0.463296
849,0.705972,-0.307817,-0.156321
850,0.132491,-0.386228,-0.332262
851,-0.030744,0.377919,0.828441
852,-0.188538,0.850775,1.21647
853,0.023498,1.357285,-0.187931
854,-0.43871,0.40426,0.041818
855,-0.687927,-0.254895,0.122845
856,-0.540033,-0.557378,0.076013
857,-0.050451,-0.204334,0.817402
858,0.023087,-0.03023,0.842058
859,0.004043,0.127521,0.689592
860,-0.473011,0.026718,-0.167438
861,-0.459512,0.012789,-0.191498
862,-0.103634,-0.233277,0.026536
863,0.079196,-0.272108,0.13624
864,0.152839,-0.277767,0.264803
865,0.180601,-0.108456,0.450433
866,-0.01919,-0.055193,0.197476
867,-0.071045,-0.052519,-0.011442
868,-0.175792,0.086293,-0.120221
869,-0.210119,0.042208,0.009206
870,-0.165938,-0.019013,0.069441
871,0.102472,-0.108119,0.158916
872,0.536371,-0.027149,-0.036424
873,0.586475,-0.227055,-0.135892
874,0.534141,-0.230462,-0.009552
875,0.376673,0.230708,0.123673
876,0.313247,0.376369,0.098889
877,0.374842,0.062683,0.177511
878,0.220738,-0.225945,0.011864
879,0.004989,-0.238089,-0.206567
880,0.008622,0.255886,-0.227679
881,0.001044,0.646809,0.436674
882,-0.226387,0.833898,0.783052
883,-0.331311,1.388317,-0.024517
884,-0.278293,0.533092,0.175673
885,-0.092766,-0.145405,0.355597
886,0.000858,-0.222888,0.22971
887,0.08518,-0.161884,0.049921
888,0.115759,-0.161703,-0.105909
889,0.081437,-0.343409,-0.129841
890,-0.166367,-0.316319,0.309228
891,-0.331346,-0.304293,0.322743
892,-0.705106,-0.057736,0.393203
893,-0.737144,-0.009238,0.515343
894,-0.732079,0.023884,0.611813
895,-0.685333,-0.002735,0.620161
896,-0.533411,-0.114646,0.52605
897,-0.100059,-0.055926,0.273149
898,1.409937,0.523756,-0.731899
899,1.976272,0.550485,-0.473792
900,1.180205,-0.116317,-0.260244
901,0.317746,-0.474091,0.140669
902,0.177852,0.718123,0.764655
903,0.03128,1.102683,1.588955
904,0.160159,1.359264,1.551866
905,-0.751983,0.377346,-0.117336
906,-0.930265,0.051077,0.221608
907,-0.864498,-0.166112,0.440856
908,-0.211398,-0.548442,0.429915
909,0.198322,-0.365676,0.629246
910,-0.194149,0.290537,0.217229
911,-0.218812,0.260769,0.251695
912,-0.116024,-0.019646,0.244887
913,0.26493,-0.373085,-0.104119
914,0.314613,-0.217901,0.238188
915,0.069306,-0.187362,0.271787
916,-0.466913,0.007259,0.348218
917,-0.336842,-0.098462,0.183177
918,-0.143446,-0.162101,0.061503
919,0.070782,0.016537,-0.048832
920,-0.027827,-0.055173,0.059811
921,0.016687,-0.069432,0.067378
922,0.27697,-0.08921,0.026047
923,0.374393,-0.116028,-0.063192
924,0.365987,-0.057655,-0.021754
925,0.376283,0.036007,0.189076
926,0.476645,0.212576,0.171329
927,0.394694,0.318696,0.040308
928,0.292916,0.289555,0.098406
929,0.363968,0.091367,0.128483
930,0.224666,-0.048994,0.088701
931,0.080874,-0.094874,0.025501
932,-0.049519,0.264763,-0.142709
933,-0.152963,0.490912,0.007344
934,-0.452214,0.681636,0.46442
935,-0.436705,0.723979,0.140869
936,-0.358932,0.490439,0.138052
937,-0.102835,-0.042854,0.450569
938,0.027653,-0.170058,0.271938
939,-0.014686,-0.162427,0.24157
940,0.009445,-0.207402,-0.019969
941,0.009267,-0.215555,-0.175212
942,-0.107144,-0.248612,0.029824
943,-0.395491,-0.098046,0.341714
944,-0.618361,0.01669,0.423621
945,-0.651112,0.010246,0.428075
946,-0.630805,0.004777,0.524884
947,-0.526283,-0.151977,0.524115
948,-0.236761,-0.300459,0.447111
949,0.645626,-0.091902,-0.087732
950,1.772062,0.350496,-0.367887
951,1.51412,0.398138,-0.784896
952,0.393824,-0.271686,-0.136297
953,-0.188305,-0.080634,0.17767
954,-0.2979,0.048095,0.08795
955,-0.277383,0.640326,1.180673
956,0.392466,1.636137,0.584595
957,0.101189,1.043478,-0.149857
958,-0.658078,0.173484,-0.219113
959,-0.776656,-0.235639,0.176002
960,-0.67579,-0.36066,0.319177
961,-0.15107,-0.244216,0.991944
962,-0.208619,-0.134524,0.597031
963,-0.133862,0.154996,0.226731
964,0.104384,-0.154901,0.076725
965,0.273385,-0.348997,0.01311
966,0.300157,-0.404643,-0.092239
967,0.096776,-0.358933,0.100189
968,-0.11562,-0.071528,0.388227
969,-0.155436,0.067259,0.391275
970,-0.132434,0.069406,0.107172
971,-0.011273,-0.055738,-0.207954
972,-0.235017,-0.025767,-0.091714
973,-0.019986,-0.12506,0.016091
974,0.397399,-0.175904,0.085913
975,0.508518,-0.277797,0.161039
976,0.536593,-0.396263,0.060947
977,0.627913,-0.12045,-0.038389
978,0.416875,0.540078,-0.000158
979,0.243496,0.49406,0.086163
980,0.304929,0.024087,0.14898
981,0.281862,-0.235378,0.091719
982,0.023137,-0.188138,-0.156178
983,0.046097,0.52273,0.187083
984,-0.061714,0.659846,0.425459
985,-0.199984,0.785901,0.589797
986,-0.418809,0.843302,0.032821
987,-0.417073,0.845621,0.0459
988,-0.122543,-0.135977,0.414688
989,0.039663,-0.123875,0.059648
990,0.054804,-0.107652,0.021876
991,0.058523,-0.135181,-0.079634
992,-0.200228,-0.340294,0.082506
993,-0.336797,-0.279883,0.215112
994,-0.602928,-0.065229,0.289267
995,-0.713754,-0.025232,0.405152
996,-0.737718,0.009151,0.531596
997,-0.676314,0.027367,0.613649
998,-0.528241,-0.059009,0.555763
999,-0.224962,-0.158043,0.460293
1000,0.655385,0.074597,-0.121238
1001,2.043663,0.247481,-0.201636
1002,1.72004,0.337339,-0.936273
1003,0.616306,-0.413949,-0.160834
1004,-0.12734,-0.153874,0.055179
1005,-0.122521,0.187083,0.075086
1006,-0.098133,1.349908,1.159796
1007,-0.174565,1.312115,0.007446
1008,-0.573763,0.389848,-0.051944
1009,-0.779105,-0.058984,0.254793
1010,-0.597446,-0.380386,0.43946
1011,-0.335099,-0.481549,0.575974
1012,-0.21585,-0.172682,0.533474
1013,-0.388956,-0.022725,0.104545
1014,-0.282864,0.034156,0.121055
1015,-0.060788,-0.309987,0.142028
1016,0.202031,-0.486654,0.033216
1017,0.274385,-0.458377,0.027983
1018,0.128841,-0.057055,0.403901
1019,-0.172383,0.051277,0.284091
1020,-0.236726,0.045697,-0.038283
1021,0.034008,-0.069083,-0.096737
1022,-0.112957,-0.062903,-0.047072
1023,-0.094157,-0.041482,0.034471
1024,0.173563,-0.092608,0.026779
1025,0.424111,-0.189891,-0.007741
1026,0.451518,-0.22858,0.031926
1027,0.515222,-0.085905,0.047776
1028,0.357731,0.380422,0.006575
1029,0.309431,0.45389,-0.045132
1030,0.438972,0.081181,0.134995
1031,0.44418,-0.033137,0.09652
1032,0.333404,-0.077084,0.079535
1033,-0.133037,0.065653,-0.239582
1034,-0.092914,0.600285,0.064566
1035,-0.194056,0.717911,0.565827
1036,-0.385105,0.897582,0.70411
1037,-0.425251,1.081455,0.077422
1038,-0.292417,0.318106,0.302406
1039,-0.06864,-0.03724,0.397768
1040,-0.057859,-0.027115,0.199646
1041,-0.030429,-0.157158,0.029628
1042,-0.087183,-0.321013,-0.112078
1043,-0.176896,-0.42018,-0.072307
1044,-0.308376,-0.43088,0.118756
1045,-0.519978,-0.244489,0.273279
1046,-0.652356,-0.05558,0.43047
1047,-0.679667,-0.028188,0.496188
1048,-0.600544,0.005781,0.570071
1049,-0.347987,-0.067259,0.471148
1050,-0.108345,-0.038352,0.392339
1051,1.692412,0.482509,-0.380794
1052,1.847476,0.353845,-0.825475
1053,1.004402,-0.265113,-0.337054
1054,0.083696,-0.199513,0.020902
1055,-0.143287,0.020916,-0.078837
1056,-0.069512,0.386609,0.240455
1057,-0.089288,1.448259,0.823042
1058,-0.253314,0.920599,0.343852
1059,-0.44335,0.48353,0.384961
1060,-0.627315,-0.319431,0.432349
1061,-0.590221,-0.634662,0.434492
1062,-0.466521,-0.750399,0.469968
1063,-0.066094,-0.282878,0.714615
1064,-0.06724,0.17889,0.212177
1065,0.094672,0.40789,-0.064228
1066,0.175923,0.204273,-0.059011
1067,0.015608,-0.194513,0.127003
1068,-0.075303,-0.30813,0.492884
1069,-0.227101,-0.111146,0.740592
1070,-0.292288,-0.026326,0.503981
1071,-0.310492,-0.080152,-0.222815
1072,0.041062,0.010046,-0.22562
1073,-0.199642,0.135624,-0.007966
1074,-0.245282,0.071326,0.057299
1075,0.082193,-0.115263,0.237951
1076,0.552523,-0.200815,0.103129
1077,0.629226,-0.282515,0.016399
1078,0.512662,-0.388409,-0.22192
1079,0.633049,-0.041783,0.000327
1080,0.755035,0.285168,0.178259
1081,0.463589,0.036171,0.163483
1082,0.408624,-0.10878,0.128125
1083,0.116014,-0.107441,0.140822
1084,-0.061875,0.105457,-0.131054
1085,0.048508,0.633554,0.177312
1086,-0.084415,0.897578,0.526826
1087,-0.364073,1.054751,0.483153
1088,-0.474703,0.978848,0.041528
1089,-0.441713,0.547267,0.167797
1090,-0.297783,-0.236313,0.469642
1091,-0.084874,-0.230077,0.283463
1092,-0.031708,-0.114644,0.226972
1093,0.113043,-0.101965,-0.082681
1094,0.060243,-0.243554,-0.112792
1095,-0.160438,-0.319313,0.126823
1096,-0.320768,-0.221701,0.214901
1097,-0.642612,0.092628,0.406006
1098,-0.67609,0.103446,0.486646
1099,-0.682038,0.125258,0.660912
1100,-0.606427,-0.040778,0.506311
1101,-0.488431,-0.152923,0.453087
1102,-0.273402,-0.17802,0.37135
1103,1.788171,0.747728,-0.442857
1104,1.625714,0.52867,-0.647953
1105,1.271554,0.029539,-0.48235
1106,-0.040961,-0.297202,0.258251
1107,-0.169199,-0.263987,0.031739
1108,-0.120371,0.276719,0.907537
1109,0.143507,1.077148,1.23156
1110,0.30087,1.789541,-0.406469
1111,-0.840188,0.213039,0.230134
1112,-0.842676,-0.206839,0.345348
1113,-0.724576,-0.41898,0.451258
1114,-0.313405,-0.366348,0.884881
1115,-0.329466,0.014398,0.501703
1116,-0.26708,0.157148,0.32208
1117,0.060513,0.280607,0.205394
1118,0.491223,-0.082791,-0.04998
1119,0.501217,-0.162172,-0.127671
1120,0.145537,-0.25096,0.193851
1121,-0.149139,-0.131557,0.399264
1122,-0.28352,-0.09604,0.472606
1123,-0.486555,-0.040116,0.077528
1124,-0.135158,0.032108,-0.243667
1125,-0.001486,0.061271,-0.191502
1126,0.119859,-0.181162,-0.027323
1127,0.410081,-0.449308,0.014465
1128,0.42922,-0.571287,-0.002077
1129,0.535255,-0.483834,-0.048096
1130,0.330851,0.013525,-0.0848
1131,0.311117,0.247179,0.109241
1132,0.342075,0.41145,0.221398
1133,0.445925,0.087974,0.060112
1134,0.443735,0.033026,0.058895
1135,0.364822,-0.146278,0.115518
1136,-0.054654,-0.136463,-0.07998
1137,-0.164149,-0.006561,-0.23906
1138,0.026218,0.644487,0.267419
1139,-0.177403,0.849549,0.591722
1140,-0.391015,1.145928,0.408663
1141,-0.417494,1.034184,0.071313
1142,-0.086363,-0.156512,0.443745
1143,0.012714,-0.168528,0.348441
1144,0.029136,-0.097876,0.280183
1145,0.227412,-0.239427,-0.172102
1146,-0.002148,-0.354833,-0.215544
1147,-0.177515,-0.192279,-0.001832
1148,-0.652496,0.02828,0.342631
1149,-0.711418,0.018464,0.343564
1150,-0.73967,0.031794,0.374292
1151,-0.615802,0.158532,0.616788
1152,-0.60457,0.122061,0.593088
1153,-0.128908,-0.150183,0.458177
1154,0.626612,0.115273,-0.275058
1155,1.421514,0.255905,-0.302405
1156,1.280708,0.024826,-0.813285
1157,0.609812,-0.285736,-0.087663
1158,0.411986,-0.111259,0.089363
1159,0.112114,0.818732,0.600136
1160,-0.042692,1.136953,1.090257
1161,0.008893,1.223446,0.586498
1162,-0.732329,0.101658,0.320245
1163,-0.753573,-0.188878,0.326812
1164,-0.71906,-0.408516,0.370522
1165,-0.56257,-0.552968,0.485557
1166,-0.234798,-0.136669,0.479549
1167,-0.082259,0.027989,0.469701
1168,0.183567,0.224082,0.335164
1169,0.144796,-0.072372,0.059332
1170,0.097116,-0.239387,0.012423
1171,-0.036801,-0.378074,0.234785
1172,-0.100639,-0.17258,0.320441
1173,-0.08897,-0.093476,0.273644
1174,0.019196,-0.006045,-0.002276
1175,0.213569,-0.049556,-0.110654
1176,0.129354,-0.065303,-0.058901
1177,-0.104799,-0.096788,0.070904
1178,0.061184,-0.202636,0.051479
1179,0.213529,-0.22331,-0.004464
1180,0.441986,-0.315058,0.0177
1181,0.441595,-0.278191,0.066041
1182,0.460559,0.176202,0.123803
1183,0.26037,0.465269,0.045586
1184,0.401333,0.247543,0.050088
1185,0.45711,0.182259,0.122493
1186,0.43495,0.091798,0.196078
1187,0.008523,0.018289,0.055266
1188,-0.147045,0.103333,-0.090011
1189,-0.138796,0.73516,0.234522
1190,-0.373069,0.831315,0.494997
1191,-0.569013,1.027582,0.401266
1192,-0.482184,0.581959,0.247269
1193,-0.085912,-0.120163,0.508937
1194,-0.058395,-0.077293,0.32556
1195,-0.075728,-0.109045,0.182398
1196,-0.073258,-0.146552,0.066633
1197,-0.071281,-0.189656,-0.202977
1198,-0.24613,-0.210545,0.136345
1199,-0.479046,-0.055659,0.331636
1200,-0.567838,-0.007147,0.365415
1201,-0.681759,0.02611,0.513392
1202,-0.652619,-0.008195,0.561241
1203,-0.595769,-0.076302,0.540429
1204,-0.127288,-0.150699,0.439302
1205,0.899497,0.136503,-0.084509
1206,1.651839,0.305999,-0.22329
1207,1.232641,0.031676,-0.639103
1208,0.137543,-0.260056,-0.01837
1209,-0.131219,-0.167911,0.058878
1210,-0.200685,0.234935,0.195051
1211,-0.275376,0.657451,1.174287
1212,-0.13499,0.905328,1.031926
1213,0.033727,1.113941,0.17384
1214,-0.561407,0.094214,0.006211
1215,-0.63731,-0.105628,0.167282
1216,-0.5717,-0.495039,0.3244
1217,-0.414468,-0.345538,0.735176
1218,-0.289664,-0.250379,0.802058
1219,0.145808,0.029801,0.642796
1220,0.282344,-0.058474,-0.155381
1221,0.262021,-0.043682,-0.160849
1222,0.0343,-0.207642,-0.331312
1223,-0.160281,-0.304677,0.15912
1224,-0.148484,-0.256557,0.388985
1225,0.000359,-0.026245,0.489347
1226,-0.103854,0.015477,0.154427
1227,-0.06242,-0.053618,0.010458
1228,-0.137531,0.039914,-0.206587
1229,-0.241765,0.105431,0.007184
1230,-0.158882,0.004717,0.125824
1231,0.19202,-0.214757,0.328557
1232,0.485979,-0.248156,0.058124
1233,0.513352,-0.267035,-0.187507
1234,0.397047,-0.01207,-0.012612
1235,0.390411,0.292541,0.166149
1236,0.504685,0.202666,0.250339
1237,0.593747,0.065465,0.221073
1238,0.104965,0.05998,0.163001
1239,-0.04712,0.068681,0.054564
1240,-0.193846,0.31517,-0.200147
1241,-0.17567,0.788785,0.25479
1242,-0.366315,0.794188,0.445058
1243,-0.500451,0.643896,0.320472
1244,-0.396845,0.28467,0.301933
1245,-0.215506,0.027485,0.549784
1246,0.022114,-0.029115,0.369296
1247,0.103155,-0.040793,0.301832
1248,0.124672,-0.030663,0.258115
1249,-0.052167,-0.279712,-0.198319
1250,-0.362908,-0.10257,-0.004038
1251,-0.553732,0.02592,0.232444
1252,-0.651444,-0.023626,0.319274
1253,-0.66163,-0.046983,0.349253
1254,-0.602565,-0.041374,0.369848
1255,-0.347312,-0.092982,0.392018
1256,0.019056,-0.22848,0.426143
1257,0.328675,-0.301872,0.303359
1258,1.632784,-0.277696,-0.226039
1259,1.922451,-0.092003,-0.522942
1260,0.983879,-0.045961,-0.27248
1261,-0.128057,0.290375,-0.176412
1262,0.082062,0.912095,0.255464
1263,-0.097193,0.901781,1.089021
1264,-0.217286,0.61779,0.492936
1265,-0.703173,0.050894,0.381133
1266,-0.686232,0.035365,0.392047
1267,-0.692012,-0.042619,0.323225
1268,-0.509151,-0.04856,0.497554
1269,-0.364494,-0.032589,0.491777
1270,0.298551,0.306244,0.386743
1271,0.223651,0.071909,0.042
1272,0.13674,-0.062349,-0.065756
1273,-0.088274,-0.299178,0.201798
1274,-0.122553,-0.26972,0.431847
1275,-0.104941,-0.174985,0.47679
1276,-0.04429,-0.043429,0.506505
1277,-0.28722,-0.178325,0.029005
1278,-0.1697,-0.241756,-0.182425
1279,-0.033907,-0.17591,-0.011066
1280,0.062148,-0.032659,0.176907
1281,0.093659,-0.013849,0.205779
1282,0.268898,-0.089671,-0.010927
1283,0.453879,0.01226,-0.124086
1284,0.416088,0.002319,-0.103715
1285,0.401769,-0.058048,0.132544
1286,0.525316,-0.000844,0.112301
1287,0.535191,0.04896,0.074535
1288,0.524321,0.048033,0.132116
1289,0.40294,-0.046725,0.213293
1290,0.216733,-0.06419,0.272632
1291,0.014804,0.399024,-0.100764
1292,-0.020341,0.819894,0.501174
1293,-0.120417,0.901737,0.688778
1294,-0.467775,1.129842,0.183126
1295,-0.439436,0.425169,0.168085
1296,-0.362839,0.132271,0.356786
1297,-0.078146,-0.248193,0.333896
1298,-0.048788,-0.183038,0.278136
1299,0.066542,-0.126882,0.108829
1300,0.155121,-0.305878,-0.14106
1301,-0.082472,-0.347579,0.113031
1302,-0.426422,-0.028554,0.304182
1303,-0.616861,0.075068,0.413472
1304,-0.687098,0.073674,0.539659
1305,-0.692099,0.053798,0.564906
1306,-0.659731,0.008666,0.569569
1307,-0.555861,-0.112543,0.455439
1308,-0.365517,-0.153783,0.430317
1309,1.793745,0.409039,-0.214167
1310,1.832016,0.410126,-0.510771
1311,1.547388,0.300124,-0.793234
1312,0.514654,-0.399397,0.011257
1313,0.352516,0.1282,-0.250009
1314,0.404563,0.747971,0.480677
1315,0.366885,1.389925,1.177843
1316,-0.455408,0.707472,-0.053388
1317,-0.659144,0.446134,0.135191
1318,-0.899904,-0.312395,0.294246
1319,-0.816251,-0.550793,0.423836
1320,-0.634824,-0.563875,0.492993
1321,-0.160718,-0.011651,0.634514
1322,0.235097,0.245753,0.630609
1323,0.192507,0.093389,0.475455
1324,0.09312,-0.333207,-0.012183
1325,0.040017,-0.496655,-0.160403
1326,0.021765,-0.473096,-0.165836
1327,-0.024377,-0.135073,0.342175
1328,0.087775,-0.013691,0.523934
1329,0.244184,-0.089488,0.138893
1330,0.09738,-0.083812,-0.203736
1331,-0.178644,-0.046435,0.048355
1332,-0.158046,-0.084176,0.135899
1333,-0.089613,-0.122669,0.237113
1334,0.4051,-0.090215,0.139507
1335,0.523974,-0.121284,0.099156
1336,0.305298,-0.114985,0.016123
1337,0.198624,0.317945,0.126365
1338,0.296302,0.438133,0.176902
1339,0.441584,0.170191,0.189124
1340,0.506329,-0.080045,0.126917
1341,0.480774,-0.100987,0.138981
1342,-0.080176,-0.108915,-0.103067
1343,-0.078289,0.183578,-0.180266
1344,-0.133581,0.652852,0.115841
1345,-0.362758,0.884553,0.370854
1346,-0.475799,1.031213,0.149588
1347,-0.39737,0.730022,0.092044
1348,-0.151693,0.002117,0.487977
1349,-0.001664,-0.117861,0.342359
1350,-0.002548,-0.114383,0.324167
1351,0.145129,-0.217692,-0.033041
1352,0.102951,-0.24604,-0.177831
1353,0.008429,-0.310835,-0.164703
1354,-0.541376,-0.055231,0.187953
1355,-0.660015,-0.002003,0.345925
1356,-0.67464,-0.030319,0.408278
1357,-0.664936,-0.044462,0.556688
1358,-0.478872,-0.23889,0.504135
1359,-0.453133,-0.286789,0.49012
1360,0.400456,-0.155974,-0.039229
1361,1.688002,0.081296,0.004484
1362,1.761042,0.569548,-0.939628
1363,0.741981,-0.323887,-0.294113
1364,-0.087892,-0.110304,-0.088186
1365,0.084666,0.690415,0.002397
1366,-0.144319,1.121599,1.31543
1367,0.130849,1.576454,0.505544
1368,-0.384374,0.842396,0.563558
1369,-0.607532,0.105491,0.444249
1370,-0.715008,-0.534334,0.448633
1371,-0.666243,-0.656047,0.473017
1372,-0.46581,-0.504667,0.414354
1373,-0.06731,0.077704,0.484492
1374,0.084667,0.216039,0.453735
1375,0.217969,-0.0104,0.193423
1376,0.128402,-0.151977,0.129093
1377,-0.022959,-0.290854,0.192722
1378,-0.243991,0.040344,0.412989
1379,-0.327742,-0.064998,0.251014
1380,-0.237884,-0.178797,-0.000371
1381,0.113587,-0.025864,-0.048117
1382,-0.031901,0.024983,0.041662
1383,-0.192406,-0.097043,0.12054
1384,0.200834,-0.129829,0.037718
1385,0.571438,-0.245027,0.026475
1386,0.59712,-0.475558,-0.166573
1387,0.54752,-0.081204,0.043087
1388,0.441718,0.173957,0.11559
1389,0.397896,0.315377,0.112982
1390,0.505809,0.135097,0.171436
1391,0.62751,-0.019945,0.11505
1392,0.439054,-0.006436,0.205476
1393,-0.155377,0.143344,-0.225874
1394,-0.026589,0.629328,0.150321
1395,-0.07386,0.777887,0.396259
1396,-0.386132,1.143751,0.536295
1397,-0.435442,1.086049,0.009436
1398,-0.410618,0.629086,0.163235
1399,-0.206483,-0.212411,0.444542
1400,-0.104276,-0.243619,0.304196
1401,-0.093821,-0.184262,0.281279
1402,0.080898,-0.221509,-0.16033
1403,-0.030441,-0.26749,-0.045416
1404,-0.014641,-0.259815,-0.012205
1405,-0.459705,0.082024,0.353611
1406,-0.61408,0.086086,0.521744
1407,-0.662619,0.026856,0.556326
1408,-0.670628,-0.024654,0.569946
1409,-0.421286,-0.220964,0.487272
1410,-0.234065,-0.29509,0.423295
1411,0.902831,-0.136694,-0.258215
1412,2.036854,0.708838,-0.985179
1413,1.47623,0.233745,-0.714908
1414,0.217112,-0.245217,0.044436
1415,0.01676,0.394588,-0.015693
1416,-0.177393,0.780922,1.198472
1417,0.061929,1.544861,1.295078
1418,-0.429131,1.027303,0.292754
1419,-0.570685,0.568381,0.373166
1420,-0.720603,-0.204378,0.368864
1421,-0.707162,-0.714638,0.452721
1422,-0.596249,-0.68528,0.5251
1423,-0.264053,-0.114534,0.522714
1424,0.030085,0.073747,0.51933
1425,0.08882,0.103736,0.491926
1426,0.155911,-0.370553,-0.08739
1427,0.143301,-0.304198,-0.089113
1428,0.142016,-0.176071,0.01105
1429,-0.045146,-0.067678,0.361018
1430,0.004539,-0.200815,0.13923
1431,0.110972,-0.246635,-0.079641
1432,-0.037087,-0.008183,0.020319
1433,-0.070238,-0.026045,0.12921
1434,-0.010172,-0.070334,0.062207
1435,0.362334,-0.154165,-0.122398
1436,0.499606,-0.295724,-0.021534
1437,0.536668,-0.292578,0.029046
1438,0.308162,0.149333,0.054914
1439,0.146697,0.391128,0.143887
1440,0.210369,0.41546,0.178404
1441,0.443206,0.081648,0.218064
1442,0.19022,-0.089862,-0.132872
1443,0.061481,-0.007154,-0.019567
1444,0.010576,0.435208,0.063125
1445,-0.173887,0.638845,0.413029
1446,-0.382622,0.714693,0.696576
1447,-0.497177,1.186286,0.178932
1448,-0.444761,0.562248,0.285374
1449,-0.260471,0.000448,0.479877
1450,-0.131951,-0.162165,0.307967
1451,-0.133209,-0.17258,0.207199
1452,-0.101097,-0.223021,-0.018595
1453,-0.049455,-0.209009,-0.198602
1454,-0.06399,-0.201678,-0.039302
1455,-0.314598,-0.052053,0.312016
1456,-0.593664,0.073101,0.442842
1457,-0.695357,0.051685,0.611541
1458,-0.65065,-0.001905,0.665748
1459,-0.56705,-0.108836,0.578279
1460,0.21599,0.024757,0.01728
1461,0.237519,-0.004387,0.017238
1462,1.903761,0.653523,-0.873358
1463,0.832707,-0.268637,-0.439034
1464,0.811595,-0.227035,-0.435752
1465,0.078972,0.410806,-0.139403
1466,0.024677,1.176558,1.430813
1467,0.052326,1.111495,1.400185
1468,-0.016486,1.245625,0.768388
1469,-0.647872,0.171512,-0.021622
1470,-0.795863,-0.206934,0.17542
1471,-0.925834,-0.38966,0.476934
1472,-0.708177,-0.326569,0.602433
1473,-0.316467,0.087538,0.512571
1474,0.033663,0.278121,0.427075
1475,0.109141,-0.142551,0.367297
1476,0.027979,-0.309648,0.31034
1477,0.017767,-0.477099,0.177686
1478,-0.15184,-0.088012,0.169243
1479,-0.190431,-0.001464,0.214099
1480,-0.060616,-0.110329,0.111909
1481,0.238352,-0.027313,-0.005078
1482,0.05845,0.028578,0.027652
1483,-0.299404,0.050504,0.050178
1484,-0.058214,-0.022886,-0.005487
1485,0.448917,-0.130747,-0.049734
1486,0.485202,-0.356958,0.066815
1487,0.455679,-0.444819,0.017473
1488,0.601322,-0.023436,-0.002549
1489,0.58156,0.484035,-0.01058
1490,0.388249,0.222351,0.169778
1491,0.401319,-0.080186,0.144635
1492,0.121843,-0.19621,0.078399
1493,-0.077182,-0.092515,-0.086184
1494,-0.036844,0.474866,-0.020938
1495,-0.184265,0.887257,0.581658
1496,-0.306405,1.019148,0.658147
1497,-0.436839,1.077828,0.12395
1498,-0.292515,0.238828,0.401638
1499,-0.068312,-0.166271,0.359704
1500,0.038303,-0.203794,0.180323
1501,0.120586,-0.183703,0.012252
1502,0.095796,-0.295574,-0.128428
1503,-0.172408,-0.329863,0.060114
1504,-0.48741,-0.06506,0.281201
1505,-0.67036,0.004459,0.386451
1506,-0.713573,-0.016289,0.438778
1507,-0.732539,0.015956,0.628358
1508,-0.704921,-0.013569,0.633552
1509,-0.648764,-0.089807,0.609536
1510,-0.126235,-0.101717,0.368958
1511,1.258739,0.149768,0.031733
1512,2.000992,0.630963,-0.522729
1513,1.342628,0.02338,-1.035924
1514,0.216683,-0.278394,-0.191189
1515,0.210206,0.170794,-0.164076
1516,0.072674,1.190548,1.604676
1517,0.16556,1.556472,1.122944
1518,-0.622897,0.724999,0.066329
1519,-0.847409,0.157431,0.297859
1520,-0.948753,-0.27178,0.490917
1521,-0.854891,-0.472459,0.541766
1522,-0.501033,-0.249966,0.536866
1523,0.024379,0.096105,0.589509
1524,0.018143,0.084651,0.539693
1525,0.219444,0.136632,0.509452
1526,0.052593,-0.344238,-0.086224
1527,0.001181,-0.377255,-0.040466
1528,0.140256,-0.241453,0.163084
1529,-0.173049,-0.008547,0.34163
1530,-0.208645,-0.052192,0.287828
1531,-0.09753,-0.06908,-0.008447
1532,-0.288176,0.229514,-0.157062
1533,-0.369723,0.238153,-0.07376
1534,0.128798,-0.195391,0.048466
1535,0.370517,-0.316716,0.041332
1536,0.570228,-0.44293,0.069454
1537,0.605169,-0.459207,-0.175304
1538,0.662724,-0.21711,-0.115541
1539,0.420038,0.375818,0.119702
1540,0.358068,0.148533,0.336538
1541,0.308033,-0.004497,0.159986
1542,0.22019,-0.15556,-0.230294
1543,0.032525,0.321393,-0.04348
1544,0.003423,0.741903,0.523458
1545,-0.011413,0.787798,0.836187
1546,-0.395622,1.328932,0.159077
1547,-0.569769,1.133393,0.12228
1548,-0.493555,0.704108,0.224894
1549,-0.255851,-0.163288,0.348029
1550,-0.071452,-0.190877,0.105401
1551,-0.083568,-0.113044,0.02602
1552,0.076171,-0.249661,-0.156738
1553,0.009693,-0.341485,0.029135
1554,-0.09886,-0.330053,0.233291
1555,-0.590021,0.022308,0.396502
1556,-0.728015,0.107719,0.586365
1557,-0.727366,0.075989,0.56172
1558,-0.665208,0.040306,0.627928
1559,-0.622512,-0.054382,0.559017
1560,-0.299383,-0.084986,0.399231
1561,0.859337,0.123787,-0.150753
1562,1.924928,0.403926,-0.364278
1563,1.497028,0.202612,-0.742368
1564,0.409983,-0.375176,-0.049455
1565,-0.100267,-0.143527,-0.108893
1566,0.114639,0.684915,0.568333
1567,-0.008417,1.265082,1.40305
1568,-0.310206,1.128054,0.05247
1569,-0.621095,0.646927,0.149545
1570,-0.873686,0.027552,0.388818
1571,-0.855743,-0.518114,0.48555
1572,-0.714119,-0.536018,0.565537
1573,-0.481373,-0.349637,0.601952
1574,0.027208,0.087201,0.613746
1575,0.165312,0.213767,0.563228
1576,0.248447,0.156087,0.29442
1577,0.114698,-0.185186,-0.232736
1578,0.040901,-0.100135,0.272406
1579,-0.016734,-0.041305,0.502546
1580,-0.047737,-0.179268,0.519259
1581,-0.145622,-0.216716,0.199898
1582,-0.046258,-0.075437,-0.224496
1583,-0.161525,0.079,-0.249601
1584,-0.198622,0.117251,0.040855
1585,0.233001,-0.182557,0.064386
1586,0.541484,-0.356368,0.047574
1587,0.563621,-0.506169,0.041885
1588,0.362949,-0.40163,-0.035866
1589,0.327191,0.3041,0.044596
1590,0.346085,0.710129,0.171203
1591,0.403761,-0.052273,0.109426
1592,0.413692,-0.206386,0.127696
1593,0.321331,-0.295075,0.205589
1594,0.01449,0.114454,-0.193377
1595,0.073416,0.700244,0.240371
1596,0.01869,0.887106,0.467046
1597,-0.423226,1.373008,0.360145
1598,-0.445516,0.483671,0.23151
1599,-0.343238,0.17626,0.398436
1600,0.003308,-0.183969,0.16683
1601,0.193979,-0.126236,0.043232
1602,0.172329,-0.054897,0.07234
1603,-0.111944,-0.155161,0.041525
1604,-0.406734,0.009157,0.245638
1605,-0.392461,0.000831,0.265394
1606,-0.735322,0.054385,0.462477
1607,-0.764632,0.094439,0.585363
1608,-0.763807,0.066781,0.563712
1609,-0.703556,0.038109,0.643479
1610,-0.570622,-0.137366,0.55981
1611,-0.180064,-0.158871,0.410579
1612,1.048173,0.193209,-0.165684
1613,1.771753,0.487022,-1.002596
1614,1.274369,0.077312,-0.703129
1615,0.339878,-0.32229,-0.074049
1616,0.003242,0.17032,-0.184773
1617,0.030192,0.807946,0.776948
1618,0.095563,1.529585,1.356249
1619,-0.331578,0.913701,-0.131789
1620,-0.647138,0.432949,0.008054
1621,-0.884744,-0.482079,0.284657
1622,-0.812378,-0.591819,0.407912
1623,-0.675024,-0.564345,0.540663
1624,-0.257694,0.027266,0.722618
1625,-0.054462,0.084329,0.673085
1626,0.154484,0.062616,0.470304
1627,0.166755,-0.234267,-0.162631
1628,0.015249,-0.298343,-0.17534
1629,-0.024639,-0.153955,0.303207
1630,-0.037374,-0.036831,0.442506
1631,-0.084441,-0.042776,0.357391
1632,0.07399,-0.11469,0.140038
1633,0.045244,-0.12787,-0.269877
1634,-0.293553,0.183893,-0.254615
1635,-0.230441,0.094749,0.065718
1636,0.017069,-0.160453,0.227648
1637,0.293787,-0.262486,0.241112
1638,0.535902,-0.328869,-0.016637
1639,0.309806,-0.11556,-0.100056
1640,0.23671,0.360389,0.165183
1641,0.302494,0.437309,0.135692
1642,0.408897,0.147454,0.161448
1643,0.464637,-0.084626,0.112047
1644,0.248179,-0.191817,0.008376
1645,-0.144055,0.001443,-0.222103
1646,-0.167711,0.604569,-0.035803
1647,-0.183312,0.887595,0.527059
1648,-0.495037,1.354121,0.150476
1649,-0.500134,1.05721,0.128681
1650,-0.456158,0.643664,0.275877
1651,-0.092193,-0.09188,0.42237
1652,0.050316,-0.154189,0.301456
1653,0.195962,-0.17609,0.127205
1654,0.187841,-0.394834,-0.365277
1655,-0.230704,-0.153749,0.084625
1656,-0.387408,0.023848,0.251815
1657,-0.670715,0.094014,0.445606
1658,-0.745726,0.034906,0.534891
1659,-0.749318,0.025773,0.568711
1660,-0.729752,0.006272,0.55363
1661,-0.702113,-0.070695,0.484484
1662,-0.488234,-0.156295,0.436149
1663,0.383573,0.036781,0.010055
1664,1.948711,0.660793,-0.661577
1665,1.647622,0.482648,-0.740812
1666,0.595503,-0.293185,-0.15896
1667,-0.205736,-0.054118,-0.096402
1668,-0.136025,0.06204,-0.212507
1669,-0.206309,0.823526,1.318611
1670,0.208292,1.963208,0.215476
1671,-0.181454,1.287307,0.330414
1672,-0.744584,0.218304,0.272877
1673,-0.796012,-0.467274,0.29521
1674,-0.63736,-0.574992,0.538875
1675,-0.132104,-0.289129,0.815036
1676,0.146203,-0.124354,0.901782
1677,0.125575,0.309413,0.296043
1678,0.114017,0.073656,-0.168005
1679,-0.015337,-0.120206,-0.112882
1680,-0.115576,-0.204875,0.253515
1681,-0.019304,-0.100996,0.59015
1682,-0.053516,-0.040756,0.35865
1683,-0.137949,-0.13572,0.078878
1684,0.050076,-0.226444,-0.171267
1685,-0.067864,-0.115753,-0.125906
1686,-0.278371,0.045616,0.073881
1687,-0.165915,-0.048386,0.136275
1688,0.098063,-0.113583,0.118923
1689,0.347244,-0.164642,0.009198
1690,0.457063,-0.411251,-0.113803
1691,0.44186,-0.37874,0.19137
1692,0.508663,-0.290413,0.218477
1693,0.333505,0.335351,0.314589
1694,0.487679,0.28219,0.117907
1695,0.478673,0.209479,0.100465
1696,-0.106456,0.256367,-0.037128
1697,-0.103036,0.520765,0.031997
1698,-0.079325,0.629385,0.307518
1699,-0.26085,0.698118,0.54703
1700,-0.435877,0.934395,0.059427
1701,-0.428101,0.854328,-0.032851
1702,-0.171348,0.167741,0.273864
1703,0.014853,0.070938,0.194559
1704,0.046596,0.104502,0.152617
1705,0.266307,-0.081582,0.068393
1706,0.147501,-0.180085,0.109214
1707,-0.221701,-0.085206,0.203005
1708,-0.551875,0.051774,0.24432
1709,-0.740057,0.07383,0.351471
1710,-0.7974,0.055154,0.479799
1711,-0.790523,0.027954,0.595746
1712,-0.69408,-0.093218,0.551303
1713,-0.602365,-0.221684,0.494423
1714,-0.246413,-0.243279,0.406731
1715,1.660305,0.243989,0.007135
1716,1.909399,0.530744,-0.393125
1717,1.484123,0.091929,-0.634245
1718,0.011375,-0.317017,-0.480959
1719,0.334435,0.273064,-0.814144
1720,0.012242,1.172733,1.533966
1721,-0.076915,1.547868,0.374422
1722,-0.512633,1.020231,0.230286
1723,-0.907682,-0.033271,0.36755
1724,-0.858213,-0.062766,0.415478
1725,-0.885462,-0.600882,0.46489
1726,-0.445255,-0.320594,0.488706
1727,-0.120922,-0.18977,0.525264
1728,-0.003534,-0.035072,0.517463
1729,0.205101,0.039872,0.400947
1730,0.183352,-0.212702,-0.195107
1731,0.114882,-0.238995,-0.159592
1732,0.135072,0.00857,0.289
1733,0.026217,0.10166,0.284655
1734,-0.345903,0.009444,0.258189
1735,-0.142358,0.05709,-0.169286
1736,-0.226441,0.171196,-0.129939
1737,-0.2719,0.177804,-0.015103
1738,0.077459,-0.20084,0.167522
1739,0.435826,-0.369518,0.162399
1740,0.495992,-0.397009,0.152631
1741,0.427361,-0.275461,-0.241375
1742,0.261754,0.45609,0.101763
1743,0.290347,0.592229,0.228578
1744,0.376859,0.127372,0.203243
1745,0.326887,-0.116882,0.070412
1746,0.17793,-0.165791,-0.058654
1747,-0.059212,0.203845,-0.156961
1748,0.022216,0.712847,0.212153
1749,0.008442,0.811175,0.493138
1750,-0.413963,1.205297,0.262377
1751,-0.519125,1.065585,-0.003317
1752,-0.373531,0.389278,0.361847
1753,-0.12957,-0.081686,0.393486
1754,0.043166,-0.123182,0.170811
1755,0.205142,-0.145645,-0.023232
1756,0.12561,-0.331345,-0.250024
1757,-0.369182,-0.026922,0.143239
1758,-0.464618,0.040138,0.31214
1759,-0.648068,0.038597,0.453287
1760,-0.783615,0.012163,0.570043
1761,-0.781257,0.002831,0.578824
1762,-0.73167,-0.064088,0.533186
1763,-0.529229,-0.086217,0.434069
1764,-0.227107,-0.003638,0.297357
1765,1.098207,0.176957,0.063298
1766,1.971484,0.55431,-0.982124
1767,1.424426,0.053998,-1.017397
1768,0.211814,0.006115,-0.370129
1769,0.242146,1.058196,0.463267
1770,0.005028,1.421757,1.522828
1771,-0.122658,1.424864,0.560988
1772,-0.498404,0.845041,0.190213
1773,-0.855574,-0.104669,0.450004
1774,-0.881192,-0.518645,0.419579
1775,-0.822809,-0.631598,0.428985
1776,-0.493597,-0.347625,0.438509
1777,-0.026027,0.189943,0.516035
1778,0.10965,0.348117,0.477872
1779,0.214247,0.401597,0.40066
1780,0.089981,-0.028806,0.000288
1781,-0.133624,-0.172511,0.185027
1782,-0.150732,-0.147311,0.321248
1783,-0.113215,-0.141043,0.359639
1784,-0.090426,-0.128435,0.143879
1785,0.081917,-0.092283,-0.078997
1786,-0.063469,0.069095,-0.153786
1787,-0.255482,0.020736,0.061979
1788,-0.220084,-0.051745,0.121668
1789,0.188694,-0.191935,0.015771
1790,0.524649,-0.262129,-0.060062
1791,0.519096,-0.337328,-0.075509
1792,0.324067,-0.239549,0.050545
1793,0.243763,0.447809,0.066157
1794,0.241837,0.449515,0.070752
1795,0.292356,0.166906,-0.075628
1796,0.358486,-0.075024,0.247935
1797,0.15207,-0.160021,0.070537
1798,-0.085892,0.147219,-0.189276
1799,-0.005611,0.750419,0.441273
1800,-0.088958,0.826378,0.67565
1801,-0.340182,1.17753,0.662524
1802,-0.354782,0.772269,0.143225
1803,-0.262879,0.400962,0.345043
1804,-0.079972,-0.006284,0.345285
1805,0.089846,-0.184393,0.03401
1806,0.148486,-0.176661,-0.051211
1807,0.098899,-0.294068,-0.124891
1808,-0.332697,-0.009136,0.229745
1809,-0.441483,0.038803,0.319276
1810,-0.642379,0.070234,0.384949
1811,-0.746062,0.143469,0.611706
1812,-0.748618,0.158525,0.684899
1813,-0.709437,0.105305,0.697683
1814,-0.678828,-0.002344,0.598558
1815,-0.118329,-0.018097,0.203428
1816,1.529405,0.446904,-0.311097
1817,1.810788,0.649121,-0.238501
1818,0.99581,-0.189566,-0.495478
1819,0.156094,-0.379604,-0.034823
1820,-0.011186,-0.291762,-0.266462
1821,-0.027554,1.04902,1.51073
1822,0.413154,1.973561,1.185285
1823,-0.35006,1.073746,0.002149
1824,-0.84475,0.302954,0.345599
1825,-0.93337,-0.257098,0.298525
1826,-0.944735,-0.550367,0.497687
1827,-0.62872,-0.359771,0.685449
1828,-0.075082,0.124432,0.651166
1829,0.124474,0.275841,0.631991
1830,0.23998,0.365797,0.615133
1831,0.12715,-0.15939,0.039332
1832,-0.055911,-0.372192,-0.10904
1833,-0.071448,-0.350388,-0.007669
1834,-0.067321,-0.048106,0.260346
1835,0.013832,0.011273,0.23794
1836,0.021038,-0.05377,0.069049
1837,-0.30433,0.091471,-0.200289
1838,-0.483518,0.158124,-0.014328
1839,-0.396962,0.090012,0.081897
1840,0.340453,-0.224411,0.178247
1841,0.569249,-0.364743,0.049157
1842,0.570403,-0.467297,-0.058737
1843,0.391033,-0.333936,-0.113638
1844,0.304805,0.415839,0.078423
1845,0.316265,0.526796,-0.008615
1846,0.277589,0.310992,0.346134
1847,0.429301,-0.060584,0.163842
1848,0.235078,-0.062191,0.13023
1849,-0.186937,0.09581,-0.141024
1850,-0.003231,0.871846,0.255958
1851,-0.150743,0.974653,0.450276
1852,-0.459433,1.113624,0.486689
1853,-0.574009,0.663238,0.099648
1854,-0.456872,0.338359,0.295144
1855,-0.134804,-0.064691,0.462746
1856,0.171329,-0.095624,0.158812
1857,0.23209,-0.027538,0.033747
1858,0.103797,-0.374393,-0.210023
1859,-0.080663,-0.251046,-0.047569
1860,-0.360383,0.050692,0.267553
1861,-0.654951,0.144358,0.420722
1862,-0.704859,0.120113,0.467436
1863,-0.74751,0.13132,0.668821
1864,-0.721767,0.046965,0.666391
1865,-0.633017,-0.123747,0.553401
1866,-0.522263,-0.18884,0.50648
1867,1.047504,0.298601,-0.314212
1868,1.923716,0.813122,-0.743777
1869,1.812166,0.656269,-0.936401
1870,0.354334,-0.263479,0.007506
1871,-0.168229,-0.039409,0.082298
1872,-0.096475,0.066966,-0.148656
1873,0.01702,1.161338,1.279235
1874,0.078684,1.663145,0.582651
1875,-0.386299,1.055027,-0.198613
1876,-0.932681,0.142068,0.190846
1877,-0.889027,-0.18603,0.448007
1878,-0.780206,-0.289992,0.587264
1879,-0.381183,-0.038829,0.734306
1880,0.16561,0.050441,0.559521
1881,0.157701,0.049114,0.532943
1882,0.178954,-0.322129,0.018393
1883,0.142404,-0.354521,-0.22653
1884,-0.010727,-0.273419,-0.180806
1885,-0.032055,-0.01228,0.391855
1886,-0.069029,0.038127,0.555679
1887,-0.109734,0.180588,0.268514
1888,-0.060597,0.067477,-0.109296
1889,-0.306896,0.179994,-0.257883
1890,-0.429554,0.075409,-0.004086
1891,-0.171021,-0.090199,0.193498
1892,0.482516,-0.322324,0.227016
1893,0.545671,-0.398762,0.074488
1894,0.442359,-0.435204,-0.231567
1895,0.293919,0.229649,-0.015083
1896,0.310023,0.422309,0.042908
1897,0.274718,0.387334,0.256283
1898,0.507007,-0.084689,0.214908
1899,0.42092,-0.107637,0.245859
1900,-0.140451,0.350192,-0.213969
1901,-0.025964,0.632011,-0.036495
1902,-0.079213,0.919738,0.34159
1903,-0.376201,1.013513,0.393413
1904,-0.516284,1.051287,0.317528
1905,-0.452456,0.419282,0.232818
1906,-0.214263,0.015188,0.469014
1907,-0.08464,-0.010068,0.401658
1908,0.266766,-0.061197,0.130208
1909,0.299584,-0.217895,-0.107526
1910,-0.107317,-0.066486,-0.059949
1911,-0.406198,0.149122,0.184815
1912,-0.703971,0.161626,0.339382
1913,-0.753215,0.137355,0.381058
1914,-0.774761,0.124205,0.440852
1915,-0.746977,0.11196,0.616356
1916,-0.674993,-0.006276,0.576848
1917,-0.590615,-0.130675,0.534802
1918,0.027984,-0.197403,0.26021
1919,1.566336,0.177493,-0.23783
1920,2.237684,0.670844,-1.10174
1921,0.95607,-0.179637,-0.259144
1922,-0.023991,-0.018962,0.208771
1923,-0.260985,0.141397,-0.281248
1924,-0.292824,0.838288,1.065356
1925,-0.120657,1.377292,1.048813
1926,-0.024663,1.662226,0.359837
1927,-0.696911,0.483216,0.229282
1928,-0.793776,-0.285353,0.232966
1929,-0.770796,-0.477283,0.26777
1930,-0.663112,-0.39709,0.584562
1931,-0.407648,-0.096005,0.794696
1932,0.035779,0.18202,0.659897
1933,0.171535,0.102321,0.481622
1934,0.114121,-0.159347,0.070457
1935,0.024457,-0.258104,-0.302206
1936,-0.053294,-0.172626,0.129872
1937,-0.185674,0.005814,0.495492
1938,-0.168646,0.037367,0.359887
1939,0.017392,0.096838,-0.017071
1940,-0.096148,0.033336,-0.169984
1941,-0.205149,0.028478,-0.103445
1942,-0.13118,-0.122764,0.025162
1943,0.219048,-0.318642,0.04262
1944,0.384626,-0.364461,0.042427
1945,0.345327,-0.376745,-0.062523
1946,0.232464,-0.137094,0.01593
1947,0.291168,0.486364,0.294854
1948,0.33384,0.343638,-0.013461
1949,0.327036,0.240608,-0.228254
1950,0.313165,-0.060018,0.280889
1951,0.066642,-0.166857,0.005578
1952,-0.140593,0.18316,-0.203149
1953,-0.001049,0.740601,0.176756
1954,-0.108179,0.922814,0.73785
1955,-0.379525,1.381082,0.650022
1956,-0.470208,1.179708,0.099123
1957,-0.163216,0.012021,0.411405
1958,-0.063937,-0.103201,0.339475
1959,0.013979,-0.15704,0.215038
1960,0.216533,-0.206043,-0.126163
1961,0.011721,-0.288112,-0.183958
1962,-0.143852,-0.152697,-0.021258
1963,-0.483766,0.075221,0.33551
1964,-0.668225,0.102954,0.410422
1965,-0.71742,0.094025,0.464687
1966,-0.747742,0.180109,0.703355
1967,-0.703459,0.173918,0.731518
1968,-0.674871,0.093065,0.63966
1969,0.032068,0.083209,0.012217
1970,1.661092,0.45372,-0.238835
1971,1.837955,0.699742,-0.390652
1972,1.336256,0.214496,-0.772275
1973,0.558159,-0.319615,-0.110262
1974,0.152537,-0.040527,-0.25893
1975,0.106612,0.887397,1.171905
1976,0.210179,1.345845,1.252648
1977,-0.453549,0.974617,-0.156408
1978,-0.945432,0.381959,0.011055
1979,-1.020821,-0.020883,0.287197
1980,-0.89568,-0.248857,0.501565
1981,-0.557324,-0.122565,0.657624
1982,0.087428,0.220145,0.655869
1983,0.170752,0.103195,0.58318
1984,0.123971,-0.116506,0.45351
1985,0.063049,-0.390371,-0.14316
1986,0.03185,-0.358617,-0.309385
1987,-0.058688,-0.083755,0.008358
1988,-0.323994,0.223137,0.59117
1989,-0.220098,0.215741,0.495775
1990,0.094532,-0.019378,0.025861
1991,0.1396,-0.063008,-0.120176
1992,-0.150419,-0.133033,-0.056248
1993,-0.131843,-0.190882,0.03211
1994,-0.082554,-0.210807,0.032369
1995,0.42401,-0.114011,0.071574
1996,0.5009,-0.211273,-0.059669
1997,0.206038,-0.035884,0.029351
1998,0.215976,0.352503,0.14752
1999,0.282124,0.452064,0.215647
2000,0.43089,0.076758,0.300813
2001,0.377053,-0.149044,0.134552
2002,-0.043693,-0.026728,-0.203833
2003,-0.140189,0.315155,-0.217114
2004,0.01187,0.805973,0.22302
2005,-0.189672,0.946056,0.488513
2006,-0.451558,1.09143,0.433979
2007,-0.516275,0.857606,0.170405
2008,-0.393833,0.28326,0.41697
2009,-0.088845,-0.041216,0.404229
2010,0.011897,-0.013977,0.279545
2011,0.197964,-0.046578,0.083247
2012,-0.141067,-0.053185,0.019978
2013,-0.316532,0.060492,0.067551
2014,-0.566295,0.134023,0.120409
2015,-0.758349,0.135688,0.400423
2016,-0.779508,0.123369,0.472549
2017,-0.777845,0.107592,0.57182
2018,-0.686463,0.009833,0.499535
2019,-0.46934,-0.173473,0.381586
2020,-0.03659,-0.138744,0.19046
2021,1.764772,0.406247,-0.272166
2022,1.924601,0.494528,-0.48099
2023,0.997776,-0.007138,-0.393306
2024,0.436661,0.523784,-0.058958
2025,0.483582,0.979097,0.343502
2026,0.163392,1.18712,1.225475
2027,-0.560639,0.646776,0.094566
2028,-0.754472,0.540824,0.290235
2029,-0.969665,0.099455,0.365199
2030,-0.988711,-0.368173,0.434612
2031,-0.835004,-0.378171,0.529443
2032,-0.348227,0.083492,0.567753
2033,-0.157479,0.138597,0.582651
2034,0.20568,0.265426,0.489442
2035,0.194095,0.020733,0.056349
2036,0.137214,-0.106146,-0.089453
2037,-0.074873,-0.223108,0.139519
2038,-0.289421,-0.091507,0.461117
2039,-0.247149,0.032757,0.554344
2040,-0.038694,0.106506,0.256155
2041,0.043212,0.091289,-0.11227
2042,-0.218413,0.123557,-0.066123
2043,-0.275773,0.009502,0.02124
2044,0.003783,-0.03675,0.248442
2045,0.206386,-0.071032,0.233462
2046,0.433332,-0.147331,0.170364
2047,0.443175,-0.45666,-0.154125
2048,0.188152,-0.11735,-0.098938
2049,0.284275,0.127824,0.020572
2050,0.406947,0.311244,-0.047535
2051,0.258742,0.053527,0.225634
2052,0.273723,-0.073323,0.230534
2053,-0.131509,-0.222844,-0.117699
2054,0.061951,0.61967,0.059569
2055,0.036574,0.677866,0.123425
2056,-0.257867,1.330683,0.60259
2057,-0.456704,1.467657,-0.014113
2058,-0.462867,0.905892,0.128084
2059,-0.235332,0.125884,0.337093
2060,0.173179,-0.265066,0.066799
2061,0.297905,-0.189984,-0.01634
2062,0.430849,-0.246839,-0.168806
2063,0.079853,-0.238788,0.051567
2064,-0.296397,0.016091,0.335046
2065,-0.57509,0.116097,0.427559
2066,-0.817448,0.095311,0.556437
2067,-0.848025,0.103268,0.611179
2068,-0.86034,0.181156,0.684986
2069,-0.864394,0.051419,0.565856
2070,-0.816103,-0.084621,0.494537
2071,-0.452137,-0.118025,0.024923
2072,1.943955,0.400964,0.152478
2073,2.291161,0.836775,-0.156063
2074,1.810193,0.019856,-0.687178
2075,-0.160271,-0.353492,-0.79064
2076,0.075549,0.08701,-0.606936
2077,0.045842,1.638501,1.693957
2078,0.121212,1.932773,1.370773
2079,-0.80644,0.664885,0.223268
2080,-0.984836,-0.07434,0.22606
2081,-0.978193,-0.337391,0.237225
2082,-0.774925,-0.485615,0.518804
2083,-0.508124,-0.122172,0.616306
2084,-0.158705,0.157921,0.665513
2085,0.169028,0.359518,0.716574
2086,0.151075,0.080007,0.573349
2087,0.108309,-0.306055,-0.170322
2088,-0.068964,-0.289654,-0.249142
2089,-0.087006,0.034845,0.229529
2090,0.02557,-0.009406,0.430256
2091,0.143148,-0.128424,0.23346
2092,0.156685,-0.145686,-0.217129
2093,-0.101031,0.016878,-0.137551
2094,-0.170595,0.048573,0.072347
2095,-0.123863,-0.037526,0.090334
2096,0.206469,-0.207045,0.086813
2097,0.48631,-0.328984,-0.006391
2098,0.320514,-0.25724,-0.064012
2099,0.204733,0.095614,0.076173
2100,0.163195,0.465694,0.120686
2101,0.206418,0.428826,0.03601
2102,0.415209,0.067973,0.248327
2103,0.417571,0.063,0.169369
2104,0.225282,0.056877,0.122188
2105,-0.149174,0.40281,-0.155357
2106,-0.102453,0.87773,0.248821
2107,-0.392189,1.00439,0.466395
2108,-0.68412,1.151665,0.313105
2109,-0.624204,0.639558,0.186206
2110,-0.390331,0.099086,0.501189
2111,-0.095778,-0.077937,0.316895
2112,0.012533,-0.089576,0.213884
2113,0.177952,-0.104757,0.002002
2114,0.135086,-0.273706,-0.164952
2115,-0.245492,-0.168222,0.048317
2116,-0.501025,0.12211,0.286842
2117,-0.705652,0.192385,0.415207
2118,-0.733322,0.185874,0.448771
2119,-0.716543,0.219745,0.552776
2120,-0.591717,0.069405,0.502691
2121,-0.470378,-0.027993,0.464915
2122,0.699576,0.084343,0.027713
2123,1.330637,0.213765,-0.179146
2124,1.88185,0.323519,-0.883393
2125,0.437409,-0.232234,-0.153447
2126,0.039918,0.050993,0.030287
2127,-0.15595,0.333817,-0.118799
2128,-0.09672,1.42347,1.131303
2129,0.045168,1.686855,0.831846
2130,-0.113445,1.343688,0.305537
2131,-0.821252,0.122252,0.313989
2132,-0.827543,-0.321417,0.227486
2133,-0.788781,-0.521341,0.38558
2134,-0.574154,-0.226659,0.589365
2135,-0.249622,0.181281,0.707383
2136,0.097765,0.299443,0.609898
2137,0.157074,0.13382,0.409986
2138,0.117559,-0.092644,-0.020481
2139,-0.007576,-0.176567,-0.091259
2140,-0.04119,0.029755,0.290008
2141,-0.260306,0.131129,0.415147
2142,-0.297929,0.003644,0.179104
2143,0.116988,-0.173215,-0.150932
2144,-0.230425,0.034923,0.071735
2145,-0.325378,0.078959,0.049186
2146,-0.338046,0.119985,0.049449
2147,0.327057,-0.119067,0.0002
2148,0.452912,-0.256525,0.021167
2149,0.41112,-0.443994,-0.004057
2150,0.319362,0.169476,0.126351
2151,0.399187,0.336233,0.226429
2152,0.32706,0.392479,-0.073414
2153,0.290375,0.047229,-0.163098
2154,0.265902,-0.023839,0.097281
2155,0.096957,-0.060613,0.236671
2156,-0.200514,0.275772,-0.203409
2157,-0.154995,0.609486,0.035162
2158,-0.089571,0.952376,0.541491
2159,-0.486412,1.428694,0.279578
2160,-0.561315,1.360741,-0.014524
2161,-0.490157,0.550782,0.303944
2162,-0.140982,-0.161267,0.301912
2163,-0.050862,-0.149067,0.196013
2164,0.265194,-0.308768,-0.19552
2165,0.127946,-0.26572,-0.231102
2166,-0.065789,-0.118135,-0.105726
2167,-0.478563,0.124858,0.252958
2168,-0.670061,0.15392,0.36981
2169,-0.772075,0.162136,0.448809
2170,-0.783459,0.189071,0.544834
2171,-0.689838,0.112438,0.5573
2172,-0.383147,-0.035538,0.532377
2173,0.475663,0.062973,0.187775
2174,1.797553,0.268044,-0.543248
2175,1.427524,0.361582,-0.843004
2176,0.244805,-0.107206,-0.241748
2177,-0.23315,0.043842,0.085323
2178,0.119929,0.812457,0.206972
2179,-0.143726,1.089215,1.242801
2180,0.009756,1.370406,0.641043
2181,-0.525054,0.620369,0.390831
2182,-0.613396,0.149832,0.446427
2183,-0.604012,-0.255867,0.406314
2184,-0.433795,-0.347367,0.591459
2185,-0.169943,-0.216643,0.766218
2186,0.144907,0.020156,0.562671
2187,0.083761,0.109533,0.356373
2188,0.067146,0.36118,-0.13839
2189,-0.14372,-0.02249,0.056021
2190,-0.243139,-0.113534,0.278496
2191,-0.304431,0.023025,0.762171
2192,-0.278997,0.212736,0.507984
2193,-0.314914,0.127993,0.193007
2194,-0.055426,0.136496,-0.168679
2195,-0.154254,0.252187,-0.076711
2196,-0.299928,0.057713,0.130515
2197,-0.182113,-0.015466,0.336425
2198,-0.05055,-0.092896,0.24535
2199,0.033852,-0.096367,0.139037
2200,0.292836,-0.158478,-0.019332
2201,0.37153,-0.324492,0.02873
2202,0.28261,-0.184294,0.125556
2203,0.236942,0.201039,0.181693
2204,0.415407,0.286396,0.202146
2205,0.440017,0.292371,0.228287
2206,0.20492,0.312616,0.141432
2207,-0.164913,0.37625,-0.047959
2208,-0.205941,0.604925,0.084006
2209,-0.393957,0.911546,0.365859
2210,-0.493243,0.883551,0.413416
2211,-0.638739,0.81319,0.273992
2212,-0.317899,0.157853,0.425885
2213,-0.120813,0.027575,0.411258
2214,0.366862,-0.037021,0.408631
2215,0.316921,0.001701,-0.022264
2216,-0.072447,-0.124086,-0.215996
2217,-0.269634,0.021344,0.01759
2218,-0.41386,0.129713,0.246236
2219,-0.563771,0.14153,0.270293
2220,-0.527475,0.277781,0.325268
2221,-0.499989,0.414962,0.37654
2222,-0.398507,0.211757,0.530171
2223,-0.320488,0.015893,0.619449
2224,0.475126,-0.315092,0.501018
2225,0.774412,-0.305806,0.159684
2226,0.932735,-0.210906,-0.431165
2227,0.430848,0.390862,-0.782511
2228,0.314017,0.303419,0.16714
2229,0.303507,0.282684,0.326398
2230,0.101015,0.245692,0.243131
2231,-0.084509,0.33865,0.419877
2232,-0.376464,0.608879,0.675396
2233,-0.177064,1.120766,-0.036334
2234,0.037366,1.306679,0.25841
2235,-0.230146,0.394457,0.338345
2236,-0.26973,0.02169,0.533345
2237,-0.388906,-0.278609,0.594563
2238,-0.474292,-0.403853,0.740733
2239,-0.48819,-0.358182,0.84276
2240,-0.345451,-0.160785,0.675409
2241,-0.019696,0.264493,-0.064392
2242,0.18553,0.781954,-0.203892
2243,0.029539,0.314064,0.569112
2244,-0.170098,0.147851,0.585752
2245,-0.191752,0.087129,0.56084
2246,0.804174,-0.188807,-0.714819
2247,-0.000978,-0.078818,0.436196
2248,-0.289334,-0.016718,0.54349
2249,-0.380456,0.059189,0.050762
2250,-0.134671,0.163792,0.163365
2251,-0.004877,0.102255,0.345311
2252,0.061221,0.091104,0.245474
2253,-0.083166,0.082672,0.171313
2254,-0.060455,-0.005774,0.192553
2255,-0.015077,0.170738,0.463363
2256,-0.267279,0.29978,0.148403
