,userAcceleration.x,userAcceleration.y,userAcceleration.z
0,-0.180647,-0.288444,0.385557
1,0.024043,-0.391943,0.298206
2,0.211922,-0.160342,0.331734
3,0.231636,0.244905,0.478926
4,0.141657,0.294226,0.615501
5,-0.149347,0.128138,0.510272
6,-0.363846,0.040394,0.197283
7,-0.226743,-0.065083,0.091875
8,-0.092218,-0.142467,0.187599
9,0.018854,-0.289274,0.332695
10,0.13669,-0.323261,0.336026
11,0.135372,-0.26594,0.305692
12,0.068092,-0.127564,0.16683
13,0.003974,-0.114997,0.063301
14,-0.001707,-0.146502,0.052102
15,0.027587,-0.168324,0.004047
16,0.085334,0.0209,-0.018288
17,0.032788,0.049072,-0.039386
18,-0.049392,0.033941,0.051804
19,0.322347,0.053758,0.037317
20,0.425333,0.145702,-0.007945
21,0.295342,0.505433,0.025494
22,0.040236,0.624225,0.214619
23,-0.086051,0.370612,0.431539
24,-0.096734,0.153211,0.6301
25,-0.302617,-0.041307,0.503439
26,-0.475617,0.032636,0.466424
27,-0.569239,0.203993,0.401478
28,-0.412885,0.485695,0.179977
29,-0.348502,0.476542,0.171648
30,-0.159323,0.27656,0.253439
31,0.023186,0.012468,0.252985
32,0.163344,-0.10197,0.208694
33,0.226822,-0.191368,0.251092
34,0.078435,-0.27349,0.194742
35,-0.023803,-0.233529,0.198354
36,-0.024564,-0.274537,0.208867
37,-0.06741,-0.37021,0.18773
38,-0.01571,-0.508155,0.203368
39,0.014644,-0.525944,0.189822
40,0.026007,-0.544511,0.146708
41,0.046188,-0.401922,-0.085783
42,0.055693,-0.193104,-0.114232
43,-0.012243,-0.065492,-0.054718
44,-0.051251,0.535011,0.115883
45,-0.264286,0.812547,-0.048185
46,-0.354603,0.604294,-0.179652
47,-0.097227,0.236803,-0.131237
48,-0.278807,0.526452,0.191571
49,-0.584382,1.143641,0.841074
50,-0.386773,0.432546,0.528815
51,0.01949,-0.453981,0.362586
52,0.170507,-0.483822,0.44957
53,0.293149,-0.009935,0.481788
54,0.266918,0.305363,0.544628
55,0.099712,0.302682,0.544753
56,-0.373099,0.030456,0.250975
57,-0.229459,-0.154135,0.088095
58,-0.120869,-0.198286,0.192475
59,-0.022467,-0.214036,0.3749
60,0.030551,-0.288027,0.377242
61,0.055955,-0.293661,0.285789
62,0.071898,-0.127099,0.209567
63,0.0511,-0.037627,0.08129
64,0.052818,-0.115997,-0.00533
65,0.031267,-0.14139,-0.005919
66,0.075806,-0.169911,0.008816
67,0.091555,-0.066735,-0.029578
68,0.042011,-0.056488,-0.039402
69,-0.189952,0.003547,0.109334
70,0.130085,0.013475,0.139244
71,0.335989,0.093978,0.036621
72,0.16091,0.187928,-0.109234
73,0.02176,0.290526,-0.181033
74,-0.173594,0.283748,-0.003165
75,0.012381,0.255131,0.141359
76,0.256206,0.058361,0.728984
77,-0.134123,-0.043836,1.038292
78,-0.534183,0.415649,0.412025
79,-0.452983,0.626007,0.177862
80,-0.370794,0.676677,0.154104
81,-0.485231,0.393681,0.175753
82,-0.0778,0.081716,0.170588
83,0.329876,-0.003991,0.17923
84,0.329659,-0.02953,0.187054
85,0.235481,-0.169297,0.198931
86,0.094092,-0.34343,0.237329
87,-0.066277,-0.37,0.359666
88,-0.156929,-0.331989,0.24066
89,-0.085034,-0.252789,0.251928
90,-0.073426,-0.311283,0.209263
91,-0.053815,-0.381783,0.156981
92,-0.108267,-0.478425,0.06842
93,-0.020069,-0.340979,-0.026953
94,-0.028488,-0.174556,0.124506
95,-0.133879,0.250145,0.095275
96,-0.18536,0.554742,0.088062
97,-0.404038,0.637876,-0.194124
98,-0.186413,0.421231,-0.320261
99,0.134164,0.488666,0.08388
100,-0.331785,0.94394,0.949979
101,-0.346198,0.196333,0.707027
102,0.085275,-0.39015,0.277847
103,0.335307,-0.352099,0.398714
104,0.358006,0.110658,0.484431
105,0.168692,0.451936,0.581814
106,-0.200541,0.213967,0.575917
107,-0.492676,-0.015517,0.32925
108,-0.474682,-0.085927,0.236696
109,-0.207348,-0.155607,0.237955
110,-0.011838,-0.250312,0.372373
111,0.083037,-0.306298,0.470623
112,0.162619,-0.150318,0.2994
113,0.162594,-0.094974,0.204313
114,0.10024,-0.033937,0.021757
115,0.057237,-0.161738,0.016216
116,0.080147,-0.17831,-0.005206
117,0.05013,-0.052804,-0.080978
118,-0.054805,0.026392,-0.095309
119,-0.123559,-0.001933,-0.00214
120,0.281758,-0.045894,0.136178
121,0.404516,0.174696,0.149764
122,0.217876,0.450416,0.110462
123,0.1625,0.619757,0.252196
124,-0.045354,0.583183,0.731949
125,-0.183131,0.603632,0.730359
126,-0.424996,0.189827,0.378311
127,-0.461104,-0.04445,0.445623
128,-0.598809,0.005487,0.394224
129,-0.546327,0.097073,0.220513
130,-0.286156,0.293532,0.186296
131,-0.048445,0.226934,0.168364
132,0.100262,0.14527,0.158158
133,0.129068,0.029459,0.248203
134,0.102767,-0.156982,0.267705
135,0.084238,-0.275392,0.310528
136,-0.045455,-0.336305,0.227295
137,-0.085572,-0.33004,0.132343
138,-0.052476,-0.312491,0.176599
139,-0.069937,-0.313522,0.174365
140,-0.05072,-0.408132,0.149121
141,-0.00318,-0.473799,0.119614
142,0.043777,-0.413718,0.031138
143,0.048619,-0.377993,-0.05641
144,0.013199,0.037593,-0.20717
145,0.030687,0.41063,-0.03507
146,-0.259216,0.759435,0.109479
147,-0.541154,0.728868,-0.16434
148,-0.279146,-0.015497,-0.412245
149,-0.125916,-0.188468,-0.267877
150,-0.013633,-0.057838,0.212304
151,-0.246269,0.565293,0.64976
152,-0.409259,0.427848,1.036793
153,-0.217747,0.595609,0.663745
154,0.28173,0.198304,0.32426
155,0.308897,0.139332,0.307802
156,0.388262,0.004392,0.474422
157,0.276187,-0.088984,0.589067
158,-0.067334,0.037914,0.49935
159,-0.292225,-0.022145,0.359365
160,-0.397396,-0.05698,0.310916
161,-0.244671,-0.154826,0.275827
162,-0.066554,-0.288173,0.273168
163,0.049276,-0.33756,0.332458
164,0.141764,-0.251411,0.302322
165,0.122752,-0.134513,0.133013
166,0.03991,-0.108688,0.073686
167,0.045249,-0.09871,0.071568
168,0.097,-0.00651,-0.059395
169,-0.025056,0.053759,-0.060842
170,-0.233618,0.075374,0.046321
171,0.163061,0.034673,0.079024
172,0.694477,0.130033,0.000866
173,0.591591,0.42278,0.060441
174,0.134003,0.623157,0.033772
175,-0.236008,0.507281,0.21905
176,-0.083473,0.179449,0.640967
177,-0.229128,0.030754,0.756779
178,-0.388694,0.108825,0.402183
179,-0.368608,0.258318,0.32136
180,-0.288374,0.410405,0.251799
181,-0.417628,0.403117,0.177761
182,-0.363225,0.382006,0.224738
183,0.044406,0.094933,0.194332
184,0.249985,-0.018883,0.210132
185,0.277291,-0.103431,0.257152
186,0.241768,-0.170398,0.249137
187,0.089491,-0.268387,0.284508
188,0.006178,-0.299313,0.311341
189,-0.027153,-0.310696,0.323427
190,-0.088424,-0.360441,0.272304
191,-0.093243,-0.416723,0.26565
192,-0.090815,-0.496084,0.164914
193,-0.086047,-0.487717,0.076804
194,-0.142266,-0.118882,0.12683
195,-0.148808,-0.122463,0.11936
196,-0.458226,0.654794,0.199209
197,-0.214229,0.524467,-0.162407
198,-0.004938,0.347632,-0.498951
199,0.290167,0.191059,-0.559176
200,0.159959,0.629245,0.376142
201,-0.014888,0.81684,0.648923
202,-0.542869,0.530065,1.135138
203,-0.333745,-0.089546,0.403865
204,0.199057,-0.120748,0.292922
205,0.373731,0.041207,0.434829
206,0.312537,0.228576,0.527547
207,0.12983,0.148729,0.702046
208,-0.266646,0.005064,0.47028
209,-0.410287,-0.044993,0.329276
210,-0.32914,-0.054016,0.285849
211,-0.029736,-0.25354,0.422179
212,0.031506,-0.332391,0.386414
213,0.14442,-0.293912,0.400694
214,0.22186,-0.048013,0.271999
215,0.154792,-0.01778,0.158219
216,0.067798,-0.030196,0.045039
217,0.142181,-0.107473,0.038842
218,0.187422,-0.109356,0.002679
219,0.063367,-0.049959,-0.04409
220,-0.130425,-0.002022,0.044852
221,0.110147,-0.022166,0.102553
222,0.617936,0.106702,0.222783
223,0.549048,0.281562,0.02462
224,0.17716,0.525812,-0.035746
225,-0.224722,0.487853,0.115785
226,-0.23933,0.282192,0.199371
227,-0.01405,0.144753,0.498395
228,-0.014388,-0.059947,0.771796
229,-0.341815,0.00432,0.619564
230,-0.539542,0.222646,0.36783
231,-0.35724,0.440128,0.28248
232,-0.245343,0.458879,0.275465
233,-0.118422,0.334321,0.346074
234,0.07824,0.106134,0.312489
235,0.196922,-0.034792,0.216602
236,0.22613,-0.070338,0.224454
237,0.11778,-0.147656,0.176902
238,0.032066,-0.225052,0.219864
239,-0.01901,-0.213628,0.240188
240,-0.044461,-0.285839,0.243347
241,-0.034877,-0.362051,0.262792
242,0.033747,-0.437013,0.28475
243,0.055302,-0.548485,0.196731
244,0.017207,-0.445111,0.051508
245,-0.074399,-0.211083,0.183983
246,-0.19761,-0.043319,0.161065
247,-0.357706,0.236477,0.185126
248,-0.319283,1.22829,0.305907
249,-0.040548,0.454282,-0.360423
250,0.221686,0.305739,-0.440239
251,0.401991,0.095702,-0.041928
252,0.197542,0.239215,0.177616
253,-0.107753,0.384263,0.48505
254,-0.576962,0.320273,0.847351
255,-0.368472,0.470205,0.55864
256,0.033102,0.11956,0.278991
257,0.214688,-0.086257,0.613097
258,0.1668,0.006826,0.69864
259,0.098887,0.044604,0.723793
260,-0.256096,0.210342,0.280212
261,-0.256528,0.105684,0.204758
262,-0.221408,0.004404,0.155235
263,0.060414,-0.224597,0.439174
264,0.162238,-0.228881,0.382657
265,0.188692,-0.159754,0.311764
266,0.166011,-0.118716,0.218831
267,0.110114,-0.093699,0.146876
268,0.092456,-0.100891,0.105936
269,0.098668,-0.124679,0.059907
270,0.092592,-0.119201,0.046984
271,0.027076,-0.063114,-0.051464
272,-0.021612,-0.01932,-0.107301
273,0.023709,-0.000203,0.089383
274,0.332539,-0.048449,0.177175
275,0.440999,0.029935,0.075755
276,0.361149,0.220503,0.007653
277,-0.029777,0.47013,0.037226
278,-0.170086,0.535809,0.279299
279,0.060359,0.324121,0.63316
280,-0.168704,0.129697,0.772656
281,-0.446095,0.251897,0.478122
282,-0.595563,0.243459,0.31978
283,-0.540518,0.331577,0.247728
284,-0.437947,0.351277,0.230355
285,-0.148052,0.206662,0.246591
286,0.134514,0.093575,0.266759
287,0.323859,0.027041,0.231954
288,0.291857,-0.036414,0.227679
289,0.26084,-0.094026,0.226158
290,-0.033403,-0.253755,0.271382
291,-0.047476,-0.20367,0.310051
292,-0.044991,-0.199668,0.321737
293,-0.049295,-0.331652,0.255489
294,-0.011474,-0.441997,0.278942
295,0.022909,-0.524346,0.253112
296,0.013532,-0.512789,0.068675
297,0.047064,-0.329475,-0.035669
298,0.111681,-0.112319,0.088198
299,-0.117486,0.343852,0.222068
300,-0.309068,0.906994,0.27089
301,-0.366718,0.690331,-0.249512
302,0.027559,0.115909,-0.34498
303,0.109966,0.141163,-0.139204
304,0.084983,0.27273,0.092967
305,-0.399963,0.411266,0.776632
306,-0.319705,0.228879,0.742872
307,0.290366,0.116897,0.451996
308,0.384111,0.197488,0.49744
309,0.277999,0.260836,0.46945
310,0.029042,0.077941,0.588371
311,-0.172678,0.009123,0.541068
312,-0.391222,-0.0823,0.343797
313,-0.213431,-0.110233,0.312192
314,-0.030211,-0.160589,0.383231
315,0.018907,-0.214357,0.42918
316,0.124226,-0.273595,0.444776
317,0.146603,-0.190981,0.297722
318,0.142213,-0.144072,0.2046
319,0.09395,-0.039793,0.093057
320,0.093609,-0.066011,0.054906
321,0.144355,-0.0871,-0.00629
322,0.140111,-0.062658,-0.009454
323,0.073532,-0.014715,-0.057417
324,0.048534,0.05114,0.030429
325,0.4011,0.013686,0.120535
326,0.521849,0.139105,0.048862
327,0.261023,0.266749,-0.096772
328,-0.068736,0.426449,-0.056392
329,-0.166249,0.303388,0.113909
330,-0.012445,0.244846,0.266196
331,0.118836,-0.048962,0.807024
332,-0.239548,0.158115,0.697442
333,-0.366453,0.356651,0.545809
334,-0.342353,0.570921,0.278345
335,-0.42976,0.417096,0.262613
336,-0.371431,0.2483,0.274956
337,-0.073941,0.070498,0.257494
338,0.18034,0.00028,0.256979
339,0.204486,0.016902,0.273116
340,0.167327,-0.025002,0.255283
341,0.067733,-0.169702,0.29339
342,0.013449,-0.317898,0.487712
343,-0.10328,-0.313721,0.239085
344,0.00236,-0.340421,0.31284
345,-0.019492,-0.404288,0.289567
346,-0.028288,-0.483306,0.249631
347,-0.024291,-0.546946,0.030531
348,0.069026,-0.423548,-0.004239
349,0.043706,-0.348955,0.126958
350,-0.235046,0.706744,0.224586
351,-0.192626,0.965273,-0.061407
352,-0.041217,0.398122,-0.439516
353,0.051288,0.324471,-0.213061
354,0.039077,0.583204,0.111066
355,-0.38162,0.69417,0.840236
356,-0.345512,0.248123,0.770257
357,0.071779,-0.047677,0.314535
358,0.462175,-0.139246,0.439857
359,0.386583,0.134178,0.425561
360,0.147522,0.340598,0.563918
361,-0.349233,0.172149,0.613131
362,-0.516482,0.104465,0.388007
363,-0.31254,-0.062618,0.270158
364,-0.067006,-0.1732,0.3416
365,0.11106,-0.355562,0.500429
366,0.133351,-0.409978,0.516324
367,0.169829,-0.22826,0.472138
368,0.135477,-0.041342,0.177984
369,0.06887,-0.014813,0.020697
370,0.075453,-0.136112,0.06497
371,0.096564,-0.164432,0.042265
372,0.086034,-0.116378,-0.06135
373,-0.016437,-0.030511,-0.112973
374,0.115209,0.000822,0.09618
375,0.239899,0.024627,0.18931
376,0.274598,0.166902,0.165255
377,0.081452,0.279515,-0.057324
378,-0.050477,0.334573,0.008877
379,-0.326566,0.370279,0.095536
380,-0.035838,0.17819,0.607062
381,-0.007392,-0.02302,0.912945
382,-0.145627,-0.012337,0.902946
383,-0.395137,0.717014,0.17505
384,-0.398645,0.730999,0.148951
385,-0.467718,0.674015,0.185702
386,0.218599,0.08914,0.157493
387,0.409081,0.070367,0.197636
388,0.491848,0.10778,0.263874
389,0.092986,-0.20381,0.206975
390,0.040154,-0.348217,0.241896
391,-0.008504,-0.460112,0.346045
392,-0.134256,-0.378882,0.28255
393,-0.089257,-0.296948,0.316902
394,-0.030166,-0.357556,0.278586
395,-0.022374,-0.534547,0.221735
396,0.01054,-0.578685,0.148679
397,0.108581,-0.314015,0.035957
398,0.030232,-0.093649,0.142794
399,-0.054223,0.073495,0.182554
400,-0.317682,0.957295,0.288056
401,-0.392429,0.604804,-0.178056
402,-0.175053,0.372689,-0.38796
403,0.266105,0.149927,-0.009822
404,-0.032577,0.533119,0.619808
405,-0.42452,0.644487,0.875333
406,-0.315825,0.234746,0.566278
407,0.242641,0.03952,0.355379
408,0.438459,-0.015087,0.487982
409,0.343011,0.273671,0.552447
410,0.155576,0.293618,0.680057
411,-0.235843,0.136936,0.598396
412,-0.440751,-0.053531,0.36548
413,-0.436262,-0.104208,0.363249
414,-0.234098,-0.131646,0.390957
415,0.011367,-0.25139,0.463867
416,0.180278,-0.251505,0.484057
417,0.214429,-0.175481,0.41681
418,0.206401,-0.08889,0.183336
419,0.165471,-0.10826,0.049045
420,0.181372,-0.099756,0.041855
421,0.215224,-0.089482,0.039122
422,0.098502,-0.104378,-0.052886
423,0.102648,-0.108535,-0.074711
424,-0.081763,-0.017609,0.044446
425,0.363765,0.023846,0.338905
426,0.427395,0.068996,0.194736
427,0.38183,0.069742,0.045374
428,-0.246143,0.330303,0.073453
429,-0.35882,0.365184,0.144379
430,-0.090955,0.364183,0.481823
431,0.085297,0.223483,0.871576
432,-0.319661,0.171516,0.723877
433,-0.419332,0.316316,0.405711
434,-0.397259,0.407601,0.279701
435,-0.432071,0.459888,0.308087
436,-0.303541,0.335808,0.227563
437,0.046976,0.20913,0.160072
438,0.335756,0.13443,0.233208
439,0.242476,-0.023079,0.35211
440,0.042215,-0.220043,0.233107
441,0.002056,-0.259935,0.276985
442,-0.087216,-0.287995,0.368824
443,-0.088378,-0.292042,0.392407
444,-0.084405,-0.386328,0.307696
445,-0.047226,-0.455424,0.230888
446,-0.021255,-0.476326,0.209584
447,0.018131,-0.442738,-0.007043
448,0.064995,-0.327284,0.04724
449,0.105318,-0.23349,0.104486
450,-0.143418,0.457144,0.342613
451,-0.321381,1.091548,0.182934
452,-0.253981,0.681437,-0.434878
453,0.094388,0.096452,-0.579273
454,0.209354,-0.048087,-0.030249
455,-0.082998,0.420251,0.602683
456,-0.464575,0.560123,0.969758
457,-0.382571,0.352737,0.751268
458,0.159385,0.196713,0.330559
459,0.4052,0.102986,0.474207
460,0.332018,0.319037,0.503915
461,0.234371,0.232663,0.653998
462,0.075776,0.16396,0.653733
463,-0.352244,0.029576,0.453342
464,-0.335726,-0.029712,0.434079
465,-0.262348,-0.087193,0.404525
466,-0.203833,-0.17894,0.382845
467,0.141297,-0.350593,0.464114
468,0.18034,-0.29404,0.384981
469,0.229508,-0.233468,0.35241
470,0.13419,-0.064371,0.09677
471,0.122644,-0.061189,0.061413
472,0.135994,-0.057968,0.054513
473,0.090846,-0.007575,-0.031339
474,0.002748,0.04104,-0.088243
475,-0.062406,0.070423,-0.054793
476,0.511652,0.039886,0.237442
477,0.64253,0.080252,0.177768
478,0.637183,0.125983,0.087537
479,-0.110195,0.461209,0.052153
480,-0.210078,0.334433,0.181404
481,-0.046406,0.127371,0.564707
482,-0.042579,-0.010532,0.887489
483,-0.339167,-0.043499,0.648973
484,-0.494889,0.26813,0.439134
485,-0.450036,0.43437,0.294903
486,-0.41395,0.510403,0.299667
487,-0.243186,0.434467,0.251755
488,0.007154,0.204975,0.228535
489,0.151536,0.122737,0.235736
490,0.245998,-0.015196,0.220774
491,0.21342,-0.095668,0.254818
492,0.044825,-0.218708,0.271504
493,-0.052464,-0.263952,0.303934
494,-0.074774,-0.223755,0.346398
495,-0.055913,-0.336262,0.301051
496,0.031538,-0.469044,0.314014
497,0.076929,-0.577516,0.275057
498,0.083581,-0.584625,0.14409
499,0.035256,-0.429214,0.148024
500,-0.148648,-0.099718,0.205679
501,-0.482695,0.566851,0.44235
502,-0.509311,1.319528,0.338901
503,-0.162153,0.627746,-0.363734
504,0.024156,0.422375,-0.510198
505,0.261845,-0.317263,-0.214216
506,0.079148,0.306017,0.461155
507,-0.492716,0.672025,0.693482
508,-0.60012,0.525933,1.015814
509,-0.196734,0.296174,0.486238
510,0.023726,0.172041,0.325523
511,0.162489,-0.066721,0.449264
512,0.134016,0.009363,0.601277
513,0.027415,0.123634,0.769436
514,-0.315578,0.270543,0.412168
515,-0.196389,0.072895,0.230645
516,-0.129687,-0.04186,0.234088
517,-0.078618,-0.160744,0.288614
518,0.110309,-0.348491,0.539013
519,0.12316,-0.294927,0.465174
520,0.129032,-0.213315,0.334889
521,0.034887,-0.057689,0.139404
522,0.039323,-0.095137,0.157999
523,0.058277,-0.116958,0.129526
524,0.062072,0.012565,-0.040897
525,-0.005473,0.029559,0.075004
526,0.165365,-0.044788,0.008592
527,0.178268,0.050091,0.040441
528,0.165616,0.134804,-0.026179
529,0.213629,0.188231,-0.016798
530,0.074984,0.372261,0.127066
531,-0.079556,0.502009,0.387811
532,-0.029496,0.240533,0.493783
533,-0.172771,0.0518,0.740207
534,-0.509812,0.157788,0.588868
535,-0.55321,0.280968,0.401719
536,-0.500442,0.426561,0.311491
537,-0.424066,0.459874,0.2282
538,-0.209169,0.311781,0.22472
539,0.012554,0.110583,0.258899
540,0.230473,0.003578,0.304457
541,0.205421,-0.034993,0.26452
542,0.133282,-0.170099,0.193322
543,0.054153,-0.238165,0.240164
544,-0.054771,-0.260931,0.305208
545,-0.086555,-0.320429,0.335268
546,-0.060878,-0.421973,0.32461
547,-0.050586,-0.463073,0.31456
548,-0.050287,-0.484213,0.12325
549,-0.045647,-0.492091,0.106748
550,-0.0514,-0.264717,0.04453
551,-0.060758,-0.041966,0.227579
552,-0.198205,0.14857,0.314537
553,-0.534743,1.161129,0.35973
554,-0.258081,0.471083,-0.453041
555,0.031084,0.294896,-0.546643
556,0.226624,0.204273,-0.18209
557,-0.051673,0.527616,0.832732
558,-0.340015,0.42658,0.780236
559,-0.349467,0.217429,0.675017
560,0.36274,-0.058394,0.499084
561,0.415279,0.000205,0.553782
562,0.287305,0.170976,0.51944
563,-0.124165,0.163476,0.733987
564,-0.371211,0.139511,0.584416
565,-0.465551,0.045347,0.352133
566,-0.302547,-0.060506,0.399309
567,-0.232551,-0.055117,0.467489
568,-0.011733,-0.247316,0.428673
569,0.10635,-0.234064,0.431015
570,0.148127,-0.17284,0.373936
571,0.175697,-0.079013,0.171443
572,0.106182,-0.111136,0.103795
573,0.102428,-0.118252,0.080231
574,0.123311,-0.070077,0.078037
575,0.019566,-0.024231,0.051467
576,-0.079972,-0.002017,0.03094
577,-0.131581,-0.019056,0.049357
578,0.217066,-0.024378,0.166938
579,0.378617,0.107317,0.144327
580,0.309986,0.256254,-0.058395
581,0.020318,0.409993,-0.068271
582,-0.111289,0.421191,0.22914
583,0.029188,0.221788,0.37695
584,0.065544,0.088902,0.880104
585,-0.429705,0.081948,0.754188
586,-0.608251,0.217213,0.502497
587,-0.521642,0.321268,0.365356
588,-0.459474,0.442848,0.305866
589,-0.397798,0.424144,0.232442
590,-0.077025,0.243896,0.259165
591,0.048385,0.155542,0.252021
592,0.276292,0.059381,0.268548
593,0.239693,-0.055442,0.250627
594,0.200209,-0.184937,0.365309
595,-0.046319,-0.299658,0.230083
596,-0.06444,-0.184308,0.328538
597,-0.114747,-0.241368,0.281297
598,-0.072165,-0.387836,0.241566
599,-0.034596,-0.540502,0.234332
600,-0.073509,-0.571917,0.102074
601,-0.005878,-0.409074,0.046734
602,0.008533,-0.263021,0.178136
603,-0.168446,0.078405,0.253661
604,-0.352872,0.824865,0.385415
605,-0.289108,0.530576,-0.329782
606,-0.048419,0.257807,-0.466433
607,0.206177,-0.04345,-0.505376
608,0.144273,0.153889,0.47161
609,-0.187811,0.51147,0.671564
610,-0.598006,0.850561,0.899601
611,0.127198,0.255257,0.371374
612,0.433513,0.057025,0.428058
613,0.291588,0.099698,0.487522
614,0.152269,0.184397,0.648462
615,-0.160622,0.080826,0.541485
616,-0.441746,0.038932,0.531542
617,-0.412437,0.054193,0.52043
618,-0.211444,-0.059422,0.419758
619,0.00567,-0.231854,0.37619
620,0.078193,-0.229245,0.455577
621,0.106828,-0.204307,0.434363
622,0.158847,-0.126352,0.232377
623,0.073251,-0.047597,0.0775
624,0.079235,-0.05649,0.069502
625,0.165303,-0.112529,0.077131
626,0.090753,-0.14627,-0.012185
627,-0.148749,-0.077607,-0.067065
628,-0.066556,-0.094693,0.013314
629,0.274981,-0.070411,0.111059
630,0.393422,0.115417,0.064306
631,0.280785,0.225092,-0.059752
632,0.04482,0.401984,0.039819
633,-0.34817,0.425498,0.224192
634,-0.020763,0.244829,0.655355
635,-0.3782,0.220939,0.78286
636,-0.464763,0.383179,0.539668
637,-0.500105,0.457375,0.461332
638,-0.532986,0.500568,0.296427
639,-0.468722,0.476413,0.466402
640,-0.26779,0.248222,0.261672
641,0.119705,0.061439,0.282054
642,0.287757,0.044218,0.339646
643,0.176751,-0.008063,0.259732
644,0.080973,-0.185269,0.274764
645,-0.027426,-0.315718,0.307336
646,-0.080043,-0.277339,0.398094
647,-0.060659,-0.34661,0.361886
648,-0.0295,-0.458404,0.273189
649,-0.024667,-0.450116,0.265252
650,-0.022107,-0.518073,0.145025
651,-0.013983,-0.453469,-0.034349
652,0.034484,-0.273,0.035249
653,-0.089818,-0.014404,0.199166
654,-0.361738,0.570788,0.279193
655,-0.453291,1.179535,0.154313
656,-0.004292,0.20956,-0.516686
657,0.134944,0.105285,-0.422024
658,0.236863,0.102409,-0.103658
659,-0.496826,0.765834,1.08879
660,-0.494881,0.549399,1.139689
661,-0.337264,0.264367,0.71627
662,0.251516,0.107158,0.487914
663,0.203019,0.19684,0.482541
664,0.173769,0.244426,0.526432
665,-0.288924,0.029967,0.608213
666,-0.467245,0.022271,0.497433
667,-0.353155,0.018279,0.425878
668,-0.182001,-0.10514,0.318305
669,0.016456,-0.294266,0.401797
670,0.131555,-0.340476,0.468207
671,0.159331,-0.224709,0.375741
672,0.143086,-0.088427,0.165112
673,0.120882,-0.055427,0.048406
674,0.142848,-0.102555,0.080426
675,0.199565,-0.10965,0.059523
676,0.045602,-0.046454,0.044954
677,-0.153012,-0.05042,0.03703
678,-0.097375,-0.005342,0.05671
679,0.226658,0.118089,0.057633
680,0.257058,0.164303,-0.045992
681,0.207733,0.283051,0.002045
682,-0.116622,0.419528,0.309283
683,0.039125,0.197382,0.710616
684,-0.102762,0.037701,0.913874
685,-0.43757,0.334574,0.55783
686,-0.496518,0.408238,0.419887
687,-0.492642,0.468877,0.33264
688,-0.544425,0.494857,0.30468
689,-0.338898,0.30563,0.245289
690,-0.003231,0.091352,0.194037
691,0.314536,0.031009,0.277639
692,0.290127,0.005093,0.293744
693,0.158438,-0.065977,0.211146
694,0.065381,-0.263376,0.261781
695,0.000467,-0.248288,0.382821
696,-0.023226,-0.246307,0.444855
697,-0.066099,-0.437096,0.374299
698,-0.055934,-0.520988,0.379367
699,-0.036925,-0.55856,0.341937
700,-0.022176,-0.446835,0.12591
701,-0.006244,-0.291598,0.146489
702,-0.040843,-0.182857,0.188738
703,-0.3714,0.567241,0.352719
704,-0.439219,1.216382,0.22842
705,-0.319769,0.85739,-0.104384
706,0.294609,0.047592,-0.441018
707,0.067494,0.461426,0.353425
708,0.083602,0.474752,0.375098
709,-0.454269,0.807243,0.912798
710,-0.24297,0.096997,0.532237
711,0.034507,-0.032252,0.485324
712,0.260067,-0.038659,0.578097
713,0.253857,0.247825,0.635943
714,0.159761,0.180441,0.746752
715,-0.188319,0.101064,0.577711
716,-0.312629,-0.020583,0.318479
717,-0.196654,-0.059787,0.286045
718,0.035443,-0.105697,0.412128
719,0.16497,-0.273858,0.441605
720,0.181786,-0.305885,0.428546
721,0.171278,-0.199902,0.314421
722,0.132902,-0.089326,0.19244
723,0.088807,-0.045516,0.117277
724,0.099842,-0.022967,0.098894
725,0.155473,-0.061549,0.077403
726,0.125893,-0.079326,0.061968
727,0.018743,-0.025879,0.008378
728,0.004733,0.023801,0.069336
729,0.171383,0.009828,0.233763
730,0.38717,0.102207,0.135167
731,0.305889,0.219767,0.028781
732,0.079658,0.413037,0.116691
733,-0.180443,0.512843,0.327184
734,-0.074566,0.278758,0.689335
735,-0.069455,0.034648,0.938329
736,-0.375367,0.243259,0.611888
737,-0.382078,0.390171,0.463092
738,-0.334644,0.427041,0.310786
739,-0.389058,0.417714,0.284443
740,-0.218652,0.265306,0.292912
741,-0.040314,0.169671,0.274742
742,0.407564,0.088362,0.263696
743,0.353236,0.054755,0.286875
744,0.166631,-0.044529,0.282362
745,0.022675,-0.310514,0.375533
746,-0.114016,-0.318197,0.317808
747,-0.088849,-0.324935,0.342026
748,0.003101,-0.378193,0.371063
749,0.004274,-0.471067,0.356134
750,0.018753,-0.52901,0.29148
751,0.076224,-0.488656,0.176532
752,0.027327,-0.207662,0.294799
753,-0.130194,-0.011057,0.29881
754,-0.331655,0.296532,0.307417
755,-0.232202,0.713007,-0.062463
756,-0.03438,0.450652,-0.374956
757,0.492991,0.172923,-0.449783
758,0.462082,0.375892,0.100306
759,0.060128,0.720323,0.598962
760,-0.374248,0.57387,0.92195
761,-0.402792,0.029288,0.640992
762,0.038284,-0.081972,0.33865
763,0.346869,0.059337,0.483992
764,0.321743,0.142777,0.541709
765,0.258201,0.30289,0.773125
766,-0.251261,0.207053,0.45692
767,-0.321466,0.143681,0.375466
768,-0.226924,-0.033814,0.3348
769,-0.0281,-0.22525,0.506218
770,0.1263,-0.322037,0.511249
771,0.20371,-0.221347,0.482294
772,0.280113,-0.092456,0.388599
773,0.217285,-0.05363,0.249152
774,0.143317,-0.102165,0.22631
775,0.133837,-0.11449,0.175083
776,0.142769,-0.062798,0.090865
777,0.019417,0.026368,0.110743
778,-0.034067,0.026661,0.035236
779,0.162272,0.011378,0.007807
780,0.47926,0.042241,0.090612
781,0.623657,0.168721,0.107832
782,0.372257,0.392937,0.179558
783,-0.10093,0.527779,0.347568
784,-0.107252,0.327489,0.636196
785,-0.320305,0.068803,0.758601
786,-0.373868,0.121138,0.57587
787,-0.378166,0.205324,0.632071
788,-0.376501,0.489675,0.311218
789,-0.369409,0.536485,0.323426
790,-0.327318,0.50278,0.309289
791,0.210793,0.097385,0.365056
792,0.134674,0.115168,0.136056
793,0.258426,0.062592,0.286831
794,0.215658,-0.154059,0.287473
795,0.193241,-0.218894,0.327495
796,0.163186,-0.25302,0.364616
797,-0.019118,-0.31411,0.333672
798,-0.015454,-0.349609,0.337515
799,0.000367,-0.382807,0.365774
800,0.058294,-0.519379,0.262511
801,0.071485,-0.487354,0.179377
802,0.094847,-0.330429,0.171044
803,0.00817,-0.006141,0.242405
804,-0.376627,0.641602,0.312021
805,-0.360936,0.915499,-0.018825
806,0.050386,0.311493,-0.489775
807,0.250369,0.021866,-0.60499
808,0.31809,0.115347,0.261398
809,-0.079915,0.563782,0.605205
810,-0.30978,0.523557,0.819085
811,-0.235907,0.408768,0.595569
812,0.289824,0.167845,0.378835
813,0.383368,0.082133,0.526136
814,0.251814,0.314601,0.689105
815,-0.01716,0.188388,0.703591
816,-0.219792,0.133312,0.526626
817,-0.341937,-0.009279,0.398267
818,-0.281293,-0.01832,0.384708
819,0.015268,-0.101592,0.52116
820,0.155505,-0.256299,0.525333
821,0.260562,-0.289975,0.505582
822,0.275137,-0.168783,0.38055
823,0.193778,-0.073145,0.262635
824,0.138274,-0.022269,0.164455
825,0.201185,-0.00666,0.111702
826,0.215647,-0.040299,0.065515
827,0.099458,-0.032574,0.034509
828,0.034394,-0.015454,-0.025995
829,0.169094,0.036312,0.065188
830,0.420542,0.030673,0.179978
831,0.477903,0.176206,0.110811
832,0.262893,0.388084,0.092617
833,-0.09844,0.50526,0.212474
834,-0.161858,0.451993,0.477834
835,0.043608,0.1342,0.9179
836,-0.364202,-0.007895,0.813414
837,-0.526865,0.162551,0.669551
838,-0.471427,0.456309,0.356439
839,-0.380737,0.507993,0.28904
840,-0.25751,0.3705,0.276748
841,-0.107162,0.283428,0.343179
842,0.34356,0.143118,0.244491
843,0.368994,0.10801,0.298695
844,0.378947,-0.015119,0.593272
845,0.078446,-0.33164,0.327737
846,0.041663,-0.327286,0.349708
847,0.009875,-0.302778,0.371843
848,-0.099542,-0.38213,0.354055
849,-0.093962,-0.4401,0.324762
850,-0.078078,-0.484623,0.310721
851,-0.051316,-0.42545,0.174158
852,-0.03677,-0.344305,0.120664
853,-0.022657,-0.236461,0.151526
854,-0.227079,0.675064,0.328958
855,-0.235488,0.870041,0.499381
856,-0.279666,0.806355,0.246917
857,0.250079,0.101247,-0.507283
858,0.345497,-0.031677,-0.269388
859,-0.10592,0.458539,0.601438
860,-0.531148,0.641407,0.998959
861,-0.464665,0.623589,0.992073
862,0.284434,0.17397,0.44247
863,0.283275,0.111725,0.495063
864,0.141747,0.22154,0.546392
865,-0.018452,0.159173,0.624585
866,-0.26769,0.065758,0.437267
867,-0.297557,0.05772,0.422238
868,-0.070973,0.074641,0.318309
869,0.123047,-0.140362,0.442
870,0.155622,-0.283339,0.507275
871,0.116459,-0.350126,0.523697
872,0.109257,-0.225459,0.368357
873,0.038003,-0.057752,0.226586
874,0.015153,0.001246,0.214272
875,0.058119,-0.061626,0.166465
876,0.180004,-0.097038,0.176808
877,0.090546,-0.05855,0.012182
878,0.099642,0.025429,0.035299
879,0.036134,0.04345,0.17189
880,0.32842,0.021699,0.286355
881,0.412451,0.166508,0.245352
882,0.310281,0.266543,0.151614
883,-0.189841,0.586584,0.112205
884,-0.118924,0.403814,0.415757
885,0.005067,0.008851,0.827968
886,-0.178425,-0.116875,0.946852
887,-0.4638,0.331333,0.522682
888,-0.428299,0.539684,0.381091
889,-0.281515,0.599411,0.293706
890,-0.070472,0.174908,0.32837
891,0.092154,0.055296,0.29901
892,0.218237,0.005894,0.307528
893,0.186505,0.040836,0.266678
894,0.150052,-0.054704,0.325936
895,0.106588,-0.218079,0.458314
896,-0.013984,-0.366004,0.390088
897,0.0029,-0.333243,0.396805
898,0.018144,-0.335463,0.368394
899,-0.072837,-0.417148,0.345743
900,-0.116519,-0.452932,0.273722
901,-0.054026,-0.310894,0.10384
902,-0.004066,-0.125096,0.159585
903,-0.006727,-0.023167,0.184578
904,-0.156699,0.624225,0.326209
905,-0.258419,0.699111,0.159309
906,-0.02606,0.614473,-0.403028
907,0.192688,0.574333,-0.2702
908,0.026976,0.690023,0.466211
909,-0.190958,0.806593,0.915403
910,-0.223127,-0.085274,0.566771
911,0.18792,-0.111518,0.388343
912,0.339949,-0.150566,0.445043
913,0.117592,0.356337,0.494314
914,0.035029,0.42197,0.547039
915,-0.088083,0.231466,0.653821
916,-0.418165,0.054029,0.406427
917,-0.207979,0.037407,0.387754
918,-0.03672,-0.115436,0.424906
919,0.056698,-0.346177,0.522138
920,0.126434,-0.348047,0.586119
921,0.091053,-0.171231,0.446971
922,0.135042,-0.009201,0.20295
923,0.125846,0.028272,0.115851
924,0.135953,-0.020239,0.115405
925,0.254036,-0.121316,0.132412
926,0.171515,-0.070017,0.100723
927,0.087366,-0.05165,0.078277
928,-0.081804,-0.116123,0.119682
929,0.221376,0.061447,0.288925
930,0.251926,0.162804,0.301024
931,0.066127,0.422271,0.152226
932,-0.284611,0.516511,0.203875
933,-0.288055,0.553058,0.289882
934,0.11834,0.010528,0.925675
935,-0.240285,-0.086846,0.960817
936,-0.505122,0.090439,0.68106
937,-0.490668,0.654759,0.274579
938,-0.344347,0.661382,0.337309
939,-0.189095,0.373006,0.35827
940,0.106436,0.100758,0.314083
941,0.158541,0.102561,0.27686
942,0.126379,0.058098,0.281194
943,0.057621,-0.149111,0.297629
944,0.066134,-0.427583,0.200451
945,-0.090162,-0.42868,0.006224
946,0.006685,-0.416684,0.286136
947,0.021399,-0.339449,0.357831
948,0.020277,-0.338033,0.355033
949,0.004467,-0.369816,0.310704
950,-0.003604,-0.258866,0.014862
951,-0.008935,-0.177269,0.037013
952,-0.01524,-0.082686,0.084854
953,-0.400622,0.927866,0.37103
954,-0.470524,1.145926,0.296453
955,-0.035962,0.372114,-0.424371
956,0.09419,0.041319,-0.224829
957,0.021483,0.291081,0.328048
958,-0.242763,0.447436,0.931911
959,-0.277245,0.409636,0.945147
960,-0.216157,0.246364,0.715393
961,0.237554,0.214366,0.408818
962,0.161405,0.171378,0.412557
963,0.05024,0.15213,0.521115
964,-0.138713,0.060608,0.625786
965,-0.340048,0.035398,0.49128
966,-0.291092,0.124065,0.399274
967,-0.076509,0.00676,0.412606
968,0.030711,-0.209584,0.493309
969,0.09199,-0.32348,0.5802
970,0.108135,-0.289705,0.522124
971,0.048914,-0.127194,0.344259
972,0.016158,-0.009228,0.217286
973,0.02769,-0.017723,0.183816
974,0.103701,-0.053846,0.150937
975,0.103048,-0.077039,0.067102
976,0.006666,0.014903,0.01668
977,0.003656,0.056955,0.163559
978,0.084718,0.039849,0.178028
979,0.364156,0.135141,0.128974
980,0.113476,0.451708,0.104671
981,-0.134608,0.5237,0.141797
982,-0.334351,0.564374,0.24202
983,-0.024749,0.005653,0.865632
984,-0.231953,-0.049984,0.873826
985,-0.392579,0.04379,0.717143
986,-0.490103,0.374331,0.357888
987,-0.470928,0.466923,0.339076
988,-0.484039,0.516666,0.321954
989,0.018707,0.23056,0.281969
990,0.132421,0.185879,0.306607
991,0.205267,0.16421,0.345969
992,0.100226,-0.046396,0.440806
993,0.021146,-0.162918,0.330486
994,-0.05009,-0.243158,0.196692
995,-0.099137,-0.342336,0.456076
996,-0.117051,-0.375803,0.455925
997,-0.097118,-0.380532,0.372339
998,-0.072035,-0.471978,0.279717
999,-0.072528,-0.527715,0.18243
1000,-0.016742,-0.318881,0.067487
1001,-0.090826,-0.101112,0.144932
1002,-0.208181,0.108136,0.258304
1003,-0.38059,1.179444,0.413689
1004,-0.166066,0.549498,-0.225809
1005,-0.022964,0.344506,-0.412023
1006,0.367368,0.209128,-0.085602
1007,-0.101503,0.728408,0.666572
1008,-0.304182,0.972045,0.988394
1009,-0.283705,-0.078091,0.533685
1010,0.247574,-0.138058,0.4276
1011,0.34035,-0.148781,0.470145
1012,0.139906,0.284757,0.624694
1013,0.010265,0.364531,0.722689
1014,-0.098097,0.276195,0.73428
1015,-0.453168,0.167708,0.363344
1016,-0.25293,0.07688,0.322427
1017,-0.068545,-0.085373,0.422511
1018,0.064912,-0.33238,0.448031
1019,0.178874,-0.313194,0.52996
1020,0.164393,-0.251746,0.494669
1021,0.135595,-0.17361,0.423373
1022,-0.034614,-0.085581,0.177285
1023,-0.036781,-0.094943,0.148449
1024,-0.009521,-0.119465,0.151265
1025,-0.202413,0.074211,-0.005579
1026,-0.19541,0.069495,-0.024083
1027,0.093029,-0.010232,0.192427
1028,0.591555,0.110648,0.177076
1029,0.583818,0.10865,0.166185
1030,0.133505,0.418064,-0.025982
1031,-0.290211,0.370963,0.251957
1032,-0.198068,0.356246,0.384778
1033,-0.087259,0.168073,0.749251
1034,-0.194985,-0.133525,0.820744
1035,-0.457382,0.230581,0.692538
1036,-0.578256,0.473171,0.452866
1037,-0.541094,0.602313,0.361476
1038,-0.612201,0.551602,0.310215
1039,-0.30137,0.329628,0.375637
1040,0.001372,0.096155,0.348032
1041,0.23274,0.070306,0.357032
1042,0.158318,-0.119011,0.312859
1043,-0.054401,-0.2834,0.27053
1044,-0.151071,-0.231513,0.368288
1045,-0.138279,-0.210696,0.421021
1046,-0.093987,-0.381456,0.37748
1047,-0.077731,-0.417054,0.356689
1048,-0.020001,-0.485726,0.292655
1049,0.020472,-0.448101,0.130945
1050,0.016928,-0.386474,-0.00539
1051,-0.030235,-0.105072,0.124152
1052,-0.361468,0.403195,0.305976
1053,-0.630843,1.419031,0.311294
1054,-0.482188,0.74681,-0.321011
1055,0.080512,-0.000841,-0.330268
1056,0.239063,0.001402,-0.107356
1057,-0.118546,0.625222,0.661002
1058,-0.441472,0.499646,0.909026
1059,-0.241998,0.169591,0.615247
1060,0.259676,0.038396,0.509293
1061,0.355145,0.098694,0.566488
1062,0.255405,0.419377,0.640167
1063,0.050662,0.267622,0.793559
1064,-0.3671,0.063319,0.58645
1065,-0.440278,-0.04555,0.461991
1066,-0.380179,-0.040778,0.46084
1067,-0.034499,-0.132981,0.521428
1068,0.029003,-0.241828,0.5585
1069,0.055346,-0.289581,0.578035
1070,0.117514,-0.118135,0.424146
1071,0.103295,-0.067795,0.311128
1072,0.04611,-0.017223,0.215556
1073,0.048411,-0.070624,0.167441
1074,0.064706,-0.063702,0.141902
1075,0.051979,-0.052244,0.080776
1076,0.01715,0.069381,0.074845
1077,0.10956,0.096404,0.087375
1078,0.247753,0.075247,0.118206
1079,0.250247,0.203383,0.042593
1080,0.133191,0.334226,0.041989
1081,-0.024208,0.457959,0.065379
1082,-0.09289,0.199978,0.562258
1083,0.003187,0.08104,0.890705
1084,-0.393311,0.063855,0.78275
1085,-0.532953,0.364199,0.518587
1086,-0.4861,0.46421,0.442285
1087,-0.557914,0.534702,0.299166
1088,-0.333773,0.33802,0.337027
1089,-0.132387,0.188896,0.352726
1090,0.318736,0.052959,0.354362
1091,0.247099,0.059729,0.298898
1092,0.179897,0.029598,0.29625
1093,-0.037947,-0.24155,0.312767
1094,-0.102563,-0.294794,0.407317
1095,-0.113427,-0.35697,0.464025
1096,-0.154825,-0.270461,0.39657
1097,-0.093349,-0.265217,0.395145
1098,-0.077186,-0.421335,0.284443
1099,-0.063108,-0.425617,0.170508
1100,-0.042523,-0.338105,0.284421
1101,-0.108788,-0.245272,0.339297
1102,-0.365318,0.581905,0.260074
1103,-0.281726,1.146639,0.25604
1104,-0.283974,0.811781,-0.072429
1105,0.241448,0.278171,-0.306781
1106,0.293162,0.466603,0.181781
1107,0.076822,0.567816,0.506432
1108,-0.421063,0.281892,0.981087
1109,0.04229,0.057398,0.548962
1110,0.056149,0.049638,0.535616
1111,0.297276,0.245475,0.654249
1112,0.021213,0.331178,0.798868
1113,0.020343,0.323734,0.787197
1114,-0.41568,0.027733,0.461016
1115,-0.309682,-0.024058,0.350804
1116,-0.203478,-0.019223,0.378731
1117,-0.114272,-0.034241,0.433287
1118,0.164623,-0.229798,0.563939
1119,0.187422,-0.195247,0.5062
1120,0.198854,-0.104468,0.394302
1121,0.085804,-0.049149,0.228999
1122,0.053547,-0.064784,0.194969
1123,0.054974,-0.072986,0.169392
1124,0.013519,-0.066213,0.106593
1125,-0.097808,-0.003395,0.034746
1126,0.017157,0.05011,0.200875
1127,0.069514,0.067827,0.213412
1128,0.18951,0.043741,0.209439
1129,0.281654,0.239766,0.116811
1130,0.106079,0.446167,0.311253
1131,-0.273452,0.508424,0.056449
1132,-0.100487,0.216153,0.660521
1133,-0.128081,-0.004317,0.884016
1134,-0.302403,-0.039005,0.889004
1135,-0.571657,0.353699,0.518166
1136,-0.475825,0.517238,0.360065
1137,-0.465479,0.565514,0.369439
1138,-0.224637,0.38223,0.343968
1139,0.083649,0.156828,0.310951
1140,0.27777,0.06489,0.343711
1141,0.254526,-0.022684,0.315487
1142,0.118943,-0.110214,0.288447
1143,0.028465,-0.187174,0.369996
1144,-0.07653,-0.247306,0.407647
1145,-0.146673,-0.335971,0.38392
1146,-0.184939,-0.39799,0.378172
1147,-0.14378,-0.4529,0.375236
1148,-0.080451,-0.502008,0.232674
1149,-0.078385,-0.413051,0.132927
1150,-0.13729,-0.173088,0.183066
1151,-0.363369,0.456423,0.423421
1152,-0.348223,0.764183,0.548794
1153,-0.264184,0.770595,0.168914
1154,-0.008284,0.630013,-0.478125
1155,-0.002226,0.631913,-0.474817
1156,0.164255,0.601476,0.336001
1157,-0.469246,0.242669,0.8877
1158,-0.491295,0.147459,0.654138
1159,-0.107708,0.042001,0.483402
1160,0.239854,-0.049739,0.463849
1161,0.290225,0.006182,0.49457
1162,0.018222,0.293448,0.680423
1163,-0.243391,0.237001,0.709867
1164,-0.410315,0.163985,0.539195
1165,-0.366307,0.092258,0.295703
1166,-0.13678,-0.028791,0.356548
1167,-0.052694,-0.157726,0.458589
1168,0.095389,-0.326317,0.547661
1169,0.136556,-0.164395,0.494412
1170,0.121855,-0.111003,0.420359
1171,0.003947,-0.022883,0.178877
1172,-0.001058,-0.07409,0.202294
1173,0.017647,-0.101567,0.181224
1174,-0.026876,-0.100557,0.138596
1175,-0.112904,-0.021229,0.103428
1176,-0.014169,-0.022095,0.157007
1177,0.137519,-0.031059,0.206369
1178,0.302124,0.0932,0.195639
1179,0.263323,0.156079,0.121206
1180,-0.05646,0.463682,0.171511
1181,-0.288389,0.570514,0.424726
1182,-0.149268,0.436009,0.611663
1183,-0.321433,0.090522,0.957769
1184,-0.53836,0.363243,0.581388
1185,-0.535002,0.382623,0.49376
1186,-0.623289,0.492104,0.449858
1187,-0.557371,0.449157,0.390414
1188,-0.393685,0.344128,0.394214
1189,0.01348,0.138725,0.261772
1190,0.197864,0.131219,0.336883
1191,0.20533,0.082831,0.367622
1192,-0.022338,-0.139192,0.350359
1193,-0.121647,-0.270383,0.399368
1194,-0.128122,-0.260639,0.450416
1195,-0.129584,-0.389818,0.421872
1196,-0.076822,-0.444517,0.354778
1197,-0.069506,-0.447124,0.350975
1198,0.019571,-0.486559,0.088727
1199,-0.007406,-0.280862,0.079082
1200,-0.006263,-0.288337,0.065483
1201,-0.186666,0.237087,0.354154
1202,-0.582053,1.147551,0.292865
1203,-0.559548,1.004446,-0.057018
1204,-0.223901,0.436371,-0.494036
1205,0.104097,0.329104,0.039679
1206,-0.054791,0.453245,0.257586
1207,-0.411584,0.566556,0.924471
1208,-0.332445,-0.040097,0.664834
1209,0.013943,-0.051769,0.563019
1210,0.245362,0.079756,0.616746
1211,0.119955,0.410209,0.641623
1212,0.045889,0.289138,0.683367
1213,-0.048996,0.159466,0.751965
1214,-0.436205,-0.03188,0.373935
1215,-0.403377,-0.014254,0.392239
1216,-0.191903,-0.066869,0.503909
1217,-0.042639,-0.22529,0.554307
1218,-0.019734,-0.303167,0.549043
1219,0.002992,-0.217609,0.468242
1220,-0.009055,-0.133594,0.287456
1221,-0.00711,-0.108339,0.207892
1222,-0.030782,-0.077224,0.163582
1223,0.041679,-0.083982,0.159095
1224,0.057444,-0.075849,0.095528
1225,-0.049729,0.023535,-0.002486
1226,-0.098764,0.117555,0.168001
1227,0.074971,0.076953,0.228039
1228,0.272145,0.105195,0.222262
1229,0.050505,0.329681,0.060537
1230,0.076467,0.497659,0.046877
1231,-0.363493,0.517986,0.473537
1232,-0.131658,0.362797,0.672655
1233,0.002489,0.193372,0.882612
1234,-0.50853,0.18522,0.709543
1235,-0.646796,0.251943,0.59248
1236,-0.63015,0.314616,0.50925
1237,-0.504701,0.4889,0.277228
1238,-0.187695,0.288155,0.259895
1239,-0.187241,0.30052,0.29254
1240,0.215135,0.195459,0.298331
1241,0.197579,0.081479,0.319607
1242,0.153158,0.01127,0.339407
1243,-0.200406,-0.316183,0.404331
1244,-0.208543,-0.408855,0.462799
1245,-0.204326,-0.440526,0.460194
1246,-0.152641,-0.363851,0.366487
1247,-0.078412,-0.385515,0.342908
1248,-0.065219,-0.416817,0.298503
1249,-0.048446,-0.468167,0.109567
1250,-0.088932,-0.275129,0.021276
1251,-0.102477,0.014532,0.169636
1252,-0.416229,0.50017,0.345177
1253,-0.705835,1.266552,0.333318
1254,-0.663789,1.042162,0.006227
1255,0.04386,0.119373,-0.352096
1256,-0.056803,0.475859,0.427709
1257,-0.21186,0.697719,0.636788
1258,-0.33548,0.464668,0.837383
1259,-0.347246,0.07483,0.522008
1260,-0.033282,0.1163,0.441228
1261,0.229125,0.327187,0.580016
1262,0.202486,0.344283,0.679044
1263,0.015341,0.153964,0.788958
1264,-0.328161,0.088445,0.574056
1265,-0.398122,0.000349,0.407047
1266,-0.374042,0.003721,0.435087
1267,-0.302316,-0.072229,0.4675
1268,-0.128171,-0.259805,0.52425
1269,-0.055886,-0.331991,0.488849
1270,0.023916,-0.223589,0.488073
1271,0.042996,-0.09759,0.352112
1272,0.020401,-0.070948,0.277302
1273,-0.020918,-0.076524,0.198278
1274,0.016321,-0.094022,0.185276
1275,0.102824,-0.064558,0.15634
1276,-0.071686,0.073537,0.076856
1277,-0.241173,0.14193,0.151521
1278,-0.160439,0.124888,0.168631
1279,0.245997,0.154822,0.161749
1280,0.135155,0.257998,0.01424
1281,0.083427,0.409846,0.040905
1282,-0.224142,0.515511,0.179708
1283,-0.081637,0.342863,0.57791
1284,0.029623,0.17594,0.769498
1285,-0.406918,0.161042,0.64371
1286,-0.449783,0.254991,0.565239
1287,-0.467773,0.352695,0.503397
1288,-0.456077,0.472813,0.384552
1289,-0.380973,0.333526,0.379228
1290,-0.225825,0.235694,0.400412
1291,0.180259,0.086656,0.356149
1292,0.089528,0.097082,0.382238
1293,0.042549,0.083763,0.390837
1294,-0.11531,-0.12406,0.337124
1295,-0.106289,-0.28743,0.417806
1296,-0.083351,-0.325181,0.451626
1297,-0.029303,-0.365973,0.435827
1298,-0.017998,-0.33892,0.432208
1299,-0.016223,-0.383508,0.405493
1300,-0.013706,-0.385668,0.207441
1301,-0.008539,-0.313349,0.180024
1302,-0.085282,-0.220197,0.216087
1303,-0.422386,0.511425,0.228423
1304,-0.460479,1.194745,0.33998
1305,-0.367781,0.990942,0.207416
1306,0.191646,0.171456,-0.31322
1307,0.331942,0.243165,-0.015238
1308,-0.000496,0.909105,0.658136
1309,-0.464049,0.907391,1.188241
1310,-0.116133,-0.023536,0.418033
1311,0.115772,-0.11892,0.431367
1312,0.230559,0.104177,0.527486
1313,0.197841,0.263477,0.756902
1314,0.143129,0.358661,0.842094
1315,-0.174366,0.301588,0.698391
1316,-0.362159,0.163909,0.405074
1317,-0.272492,0.08588,0.374288
1318,-0.051172,-0.249182,0.523446
1319,-0.000131,-0.373594,0.56744
1320,0.055382,-0.361852,0.576454
1321,0.112835,-0.114434,0.479102
1322,0.063938,-0.002868,0.303698
1323,0.019055,-0.009849,0.272139
1324,0.009885,-0.101628,0.214128
1325,0.066124,-0.084568,0.153694
1326,0.037118,-0.02779,0.146779
1327,-0.149037,0.054376,0.159112
1328,0.105007,0.046938,0.155486
1329,0.331978,0.014916,0.189424
1330,0.434561,0.156912,0.042423
1331,0.18478,0.423377,0.017949
1332,-0.033591,0.482687,0.100194
1333,-0.063583,0.312579,0.558298
1334,-0.010046,0.006859,0.82127
1335,-0.156479,-0.02401,0.915598
1336,-0.401466,0.268675,0.727922
1337,-0.492791,0.463268,0.551487
1338,-0.496064,0.551387,0.501495
1339,-0.545836,0.54143,0.374418
1340,-0.176633,0.245379,0.405629
1341,0.184801,0.040415,0.404202
1342,0.327764,0.118594,0.417987
1343,0.236939,0.118881,0.376382
1344,0.086325,-0.076737,0.333462
1345,-0.037772,-0.23726,0.410332
1346,-0.057975,-0.319195,0.481627
1347,-0.095356,-0.413954,0.474828
1348,-0.110098,-0.350773,0.399038
1349,-0.031343,-0.435783,0.379725
1350,-0.001278,-0.524861,0.305639
1351,0.029124,-0.340841,0.27305
1352,-0.028445,-0.213438,0.278859
1353,-0.120098,-0.021465,0.287991
1354,-0.439047,1.203716,0.507566
1355,-0.050003,0.597437,-0.380001
1356,0.193226,0.383508,-0.413967
1357,0.391915,-0.067836,-0.188921
1358,-0.028282,0.529366,0.680276
1359,-0.027866,0.545906,0.705509
1360,-0.666501,0.739134,1.090745
1361,0.043441,0.003595,0.473444
1362,0.225181,-0.136359,0.472628
1363,0.208078,0.205016,0.676064
1364,0.129236,0.294564,0.731916
1365,0.068544,0.213842,0.804757
1366,-0.439565,0.232477,0.458256
1367,-0.263285,0.136742,0.438101
1368,-0.150687,0.047721,0.442863
1369,0.151505,-0.304435,0.630249
1370,0.134041,-0.297742,0.672817
1371,0.110968,-0.247967,0.652534
1372,0.020029,-0.001747,0.234825
1373,-0.006433,0.006936,0.157363
1374,-0.016811,-0.025323,0.146037
1375,0.060352,-0.184599,0.215018
1376,0.055792,-0.224177,0.088825
1377,0.02104,-0.189537,0.012398
1378,0.100777,0.031376,0.209556
1379,0.35909,0.146775,0.385866
1380,0.402954,0.190618,0.360177
1381,-0.013377,0.351373,0.04568
1382,-0.137271,0.324673,0.074427
1383,-0.32591,0.300218,0.192135
1384,-0.016896,0.130134,0.585722
1385,0.168196,0.035703,0.979584
1386,-0.127985,0.114868,0.934262
1387,-0.401212,0.538806,0.663811
1388,-0.448627,0.642475,0.498495
1389,-0.519979,0.540954,0.489074
1390,-0.38342,0.347143,0.401195
1391,-0.001363,0.110392,0.352631
1392,0.263397,0.096119,0.337666
1393,0.247718,0.134286,0.342568
1394,0.100513,0.082778,0.338081
1395,-0.035023,-0.094622,0.411821
1396,-0.071496,-0.298382,0.485862
1397,-0.020428,-0.379856,0.531889
1398,-0.028734,-0.363802,0.452377
1399,-0.045562,-0.376294,0.421792
1400,0.004705,-0.540585,0.268677
1401,0.029456,-0.485472,0.21111
1402,-0.011887,-0.171751,0.28863
1403,-0.083589,-0.035839,0.288595
1404,-0.385298,0.498939,0.477258
1405,-0.413303,1.261523,0.493059
1406,0.059969,0.465968,-0.410175
1407,0.278463,0.274733,-0.440478
1408,0.42525,0.125222,0.122375
1409,0.019509,0.600637,0.626158
1410,-0.141492,0.707398,0.818031
1411,-0.575638,0.477222,1.028259
1412,-0.078195,0.247692,0.453657
1413,0.162221,0.01576,0.433596
1414,0.231139,0.080744,0.639517
1415,0.22683,0.143355,0.708006
1416,0.160892,0.177659,0.854299
1417,-0.346512,0.187248,0.411281
1418,-0.326614,0.156595,0.330719
1419,-0.247024,0.079076,0.308838
1420,0.015003,-0.201799,0.526067
1421,0.109414,-0.37625,0.589967
1422,0.159461,-0.313299,0.554815
1423,0.145098,-0.1339,0.406511
1424,0.098369,-0.024105,0.23538
1425,0.036044,-0.019638,0.225847
1426,0.047149,-0.062778,0.239532
1427,0.077402,-0.059727,0.129567
1428,0.036048,0.040417,0.103062
1429,0.070343,0.111333,0.166464
1430,0.271106,0.075053,0.189311
1431,0.52826,0.084563,0.262171
1432,0.422896,0.186863,0.145474
1433,0.103972,0.449457,0.099318
1434,-0.386318,0.404419,0.168079
1435,-0.122878,0.277998,0.561864
1436,0.001945,-0.048085,0.951821
1437,-0.166711,-0.03308,1.026714
1438,-0.596965,0.363106,0.700771
1439,-0.419627,0.668986,0.362646
1440,-0.438578,0.685722,0.403449
1441,-0.552429,0.538743,0.406896
1442,0.012844,0.086612,0.406987
1443,0.251323,0.065747,0.445229
1444,0.410475,0.118676,0.374856
1445,0.112773,-0.07304,0.346215
1446,0.06883,-0.204139,0.416831
1447,-0.065001,-0.255811,0.503387
1448,-0.067753,-0.378148,0.533057
1449,-0.06598,-0.37716,0.48446
1450,-0.04418,-0.343715,0.41276
1451,0.100285,-0.454186,0.300968
1452,0.085588,-0.48879,0.189481
1453,0.016464,-0.220868,0.175843
1454,-0.117933,0.142995,0.332815
1455,-0.296531,0.41929,0.456054
1456,-0.503134,1.258756,0.264227
1457,-0.167265,0.525748,-0.336999
1458,0.010155,0.402637,-0.375373
1459,0.120236,0.499588,0.266201
1460,-0.075886,0.532391,0.781322
1461,-0.394406,0.174502,0.920918
1462,-0.194475,0.087494,0.581951
1463,0.233507,0.02068,0.492611
1464,0.28945,0.369369,0.612875
1465,0.207697,0.511572,0.741345
1466,0.093264,0.233363,0.835672
1467,-0.23339,0.085142,0.661931
1468,-0.368086,-0.010582,0.417435
1469,-0.317497,-0.007091,0.485504
1470,-0.154207,-0.053981,0.515755
1471,0.004889,-0.229131,0.599388
1472,0.047686,-0.315491,0.63712
1473,0.137278,-0.199986,0.60258
1474,0.141221,-0.051008,0.350103
1475,0.065708,-0.059041,0.217218
1476,0.055246,-0.069262,0.18995
1477,0.096373,-0.128293,0.231782
1478,0.015518,0.015561,0.05104
1479,0.016573,0.008771,0.027469
1480,0.161039,0.07907,0.336289
1481,0.411187,0.072248,0.335311
1482,0.40708,0.069581,0.323715
1483,0.018048,0.389719,0.147668
1484,-0.439607,0.451559,0.163327
1485,-0.332206,0.478584,0.383589
1486,0.179761,0.204407,0.989955
1487,-0.314357,0.060083,0.93469
1488,-0.441092,0.152011,0.752071
1489,-0.619521,0.254338,0.610998
1490,-0.614617,0.489385,0.486245
1491,-0.57871,0.528048,0.42627
1492,-0.276683,0.436684,0.365042
1493,0.193042,0.220217,0.362814
1494,0.277959,0.221682,0.368026
1495,0.225758,0.20165,0.392596
1496,-0.074819,-0.127365,0.419146
1497,-0.161375,-0.202799,0.456145
1498,-0.211035,-0.344642,0.45544
1499,-0.172521,-0.372596,0.437534
1500,-0.144661,-0.379589,0.411319
1501,0.007776,-0.457749,0.398321
1502,0.019883,-0.527632,0.335477
1503,-0.014694,-0.46676,0.136479
1504,-0.069602,0.064672,0.154627
1505,-0.153971,0.345097,0.326047
1506,-0.194291,0.774405,0.373068
1507,-0.474763,1.084718,0.059157
1508,-0.340093,0.954807,-0.10466
1509,-0.194048,1.048028,0.171981
1510,-0.121445,0.538705,1.081692
1511,-0.444798,-0.452504,0.277463
1512,-0.260889,-0.681793,0.331186
1513,-0.005344,-0.370435,0.46976
1514,0.26593,0.359997,0.635545
1515,0.251004,0.713863,0.686514
1516,-0.006148,0.427273,0.828595
1517,-0.324102,0.087744,0.496499
1518,-0.35586,0.027493,0.332826
1519,-0.203203,-0.058481,0.401748
1520,-0.078236,-0.144445,0.537163
1521,-0.095457,-0.151108,0.524202
1522,-0.001802,-0.237006,0.516457
1523,0.000392,-0.09436,0.46913
1524,-0.005859,-0.106022,0.443091
1525,-0.043905,-0.093792,0.27548
1526,-0.067717,-0.201724,0.248047
1527,-0.055701,-0.207131,0.221833
1528,0.001877,-0.102955,0.180968
1529,-0.114454,0.054575,0.145752
1530,-0.168906,0.109106,0.1652
1531,0.09902,0.062782,0.27273
1532,0.40801,0.102676,0.25856
1533,0.264528,0.145252,0.148477
1534,0.005838,0.446645,0.10165
1535,-0.272662,0.436688,0.438063
1536,-0.26289,0.40549,0.55249
1537,-0.124372,0.194032,0.797024
1538,-0.370398,0.021804,0.759873
1539,-0.429103,0.093496,0.763581
1540,-0.515541,0.296699,0.622697
1541,-0.584,0.616423,0.372241
1542,-0.611677,0.589715,0.335714
1543,-0.294899,0.271699,0.335318
1544,-0.139467,0.188374,0.326781
1545,0.16135,0.079848,0.384262
1546,0.176574,-0.026349,0.37002
1547,0.042274,-0.175848,0.355727
1548,9.70E-05,-0.218912,0.387304
1549,-0.188954,-0.339152,0.402788
1550,-0.213317,-0.332797,0.364793
1551,-0.085582,-0.369595,0.402784
1552,-0.02641,-0.457781,0.363012
1553,0.002823,-0.489011,0.221373
1554,0.004133,-0.343177,0.030662
1555,-0.024638,-0.111646,0.122596
1556,-0.266761,0.242465,0.331999
1557,-0.579168,0.964715,0.468104
1558,-0.690271,0.987624,0.027995
1559,-0.295714,0.45573,-0.297831
1560,0.014469,0.701209,0.101165
1561,-0.116674,0.730564,1.182154
1562,-0.344539,-0.269612,0.775397
1563,-0.292679,-0.27994,0.682127
1564,0.141822,0.013672,0.573176
1565,0.168351,0.580874,0.615487
1566,0.178464,0.506747,0.70175
1567,-0.214482,0.224895,0.706177
1568,-0.267761,0.088223,0.469736
1569,-0.26177,0.030105,0.524939
1570,-0.228986,-0.056628,0.507897
1571,-0.120782,-0.223012,0.544058
1572,-0.076976,-0.296188,0.555258
1573,0.085738,-0.278396,0.566002
1574,0.068787,-0.099555,0.422206
1575,0.052263,-0.11462,0.388066
1576,-0.046912,-0.063444,0.293697
1577,-0.052776,-0.018974,0.154228
1578,-0.016572,0.006053,0.093454
1579,-0.072789,0.0765,0.030292
1580,-0.148525,0.05301,0.163802
1581,0.011335,0.001127,0.152404
1582,0.334556,0.10917,0.257523
1583,0.195262,0.277936,-0.002932
1584,0.070099,0.317147,-0.051637
1585,-0.201578,0.323268,0.336535
1586,-0.168469,0.26209,0.377052
1587,-0.131413,0.130329,0.785831
1588,-0.609487,0.317875,0.703388
1589,-0.622236,0.441277,0.605049
1590,-0.632501,0.525239,0.503067
1591,-0.505404,0.639997,0.446283
1592,-0.411264,0.487793,0.404853
1593,-0.240758,0.252696,0.396432
1594,0.021132,0.162743,0.348352
1595,0.13087,0.131889,0.424528
1596,0.006482,0.090591,0.373902
1597,-0.027459,-0.062046,0.387722
1598,-0.041892,-0.217306,0.48442
1599,-0.080178,-0.30224,0.518358
1600,-0.105924,-0.44474,0.506364
1601,-0.145169,-0.481785,0.437462
1602,-0.095588,-0.536525,0.378943
1603,-0.074914,-0.47724,0.228851
1604,-0.04313,-0.312385,0.120783
1605,-0.07379,-0.121342,0.214344
1606,-0.299743,0.311813,0.413341
1607,-0.424923,1.175355,0.481329
1608,-0.411771,0.756335,-0.201813
1609,-0.134788,0.549557,-0.327022
1610,0.015271,1.194577,0.883427
1611,-0.151608,1.167686,1.454935
1612,-0.533811,-0.031161,0.621918
1613,0.042346,-0.499882,0.393883
1614,0.211696,-0.26701,0.47793
1615,0.238386,0.689856,0.760495
1616,0.196817,0.59059,0.920891
1617,-0.045761,0.402328,0.919935
1618,-0.490854,0.193089,0.547437
1619,-0.372633,-0.003882,0.468054
1620,-0.307325,-0.077395,0.495992
1621,-0.148409,-0.228212,0.576662
1622,0.028338,-0.352776,0.614862
1623,0.060082,-0.297003,0.611796
1624,0.086532,-0.063596,0.531996
1625,0.074823,0.061286,0.267383
1626,0.049569,-0.02545,0.224033
1627,0.071863,-0.160223,0.175363
1628,0.074692,-0.106783,0.078966
1629,0.016234,-0.060924,-0.009439
1630,-0.151898,0.01788,0.145212
1631,0.351458,-0.042687,0.459391
1632,0.486593,0.077557,0.370216
1633,0.210928,0.47292,0.107471
1634,0.054583,0.568591,0.144783
1635,-0.402317,0.532749,0.362464
1636,-0.179033,0.051942,1.061571
1637,-0.41679,0.188178,0.876203
1638,-0.488262,0.352333,0.689501
1639,-0.462344,0.521641,0.479213
1640,-0.523801,0.625719,0.454575
1641,-0.513035,0.571974,0.49276
1642,-0.155593,0.21925,0.394104
1643,0.079687,0.161029,0.353576
1644,0.178559,0.139988,0.402673
1645,0.081342,0.058544,0.405093
1646,-0.065152,-0.103182,0.430134
1647,-0.096086,-0.218791,0.499298
1648,-0.109409,-0.300478,0.489544
1649,-0.130967,-0.393385,0.460549
1650,-0.092699,-0.396792,0.430759
1651,-0.02662,-0.46461,0.408941
1652,-0.020622,-0.505232,0.267757
1653,-0.005785,-0.316552,0.132789
1654,-0.067344,-0.019371,0.232915
1655,-0.274093,0.444728,0.402481
1656,-0.37579,1.223419,0.534556
1657,-0.478208,0.80019,0.032302
1658,-0.038246,0.824013,-0.002368
1659,-0.063034,1.017021,0.353832
1660,-0.294804,1.030433,1.221028
1661,-0.200427,-0.540746,0.349777
1662,-0.028002,-0.458145,0.447429
1663,0.295682,-0.296192,0.594602
1664,0.366921,0.652839,0.739748
1665,0.303957,0.754391,0.79883
1666,-0.035877,0.420992,0.863556
1667,-0.394337,0.052269,0.359439
1668,-0.324337,-0.013099,0.346214
1669,-0.23954,-0.049372,0.449712
1670,-0.018376,-0.250898,0.663476
1671,-0.007292,-0.270239,0.653246
1672,0.114085,-0.080849,0.551956
1673,0.114159,-0.011096,0.451909
1674,0.097115,-0.025979,0.309689
1675,0.033879,-0.099596,0.308698
1676,0.011572,-0.080031,0.261912
1677,0.006401,-0.034089,0.208049
1678,-0.079082,0.0632,0.099429
1679,-0.09795,0.085462,0.174425
1680,-0.097763,0.08339,0.243946
1681,0.293153,0.03917,0.458688
1682,0.231448,0.12839,0.191392
1683,0.040225,0.230483,0.048252
1684,-0.29025,0.398053,0.182776
1685,-0.222947,0.369346,0.383907
1686,-0.054919,0.356217,0.588052
1687,-0.112526,0.037341,1.109687
1688,-0.459905,0.312474,0.755382
1689,-0.532593,0.377478,0.696669
1690,-0.553714,0.512165,0.480304
1691,-0.562817,0.480518,0.428023
1692,-0.483129,0.42786,0.411167
1693,0.01743,0.175007,0.35433
1694,0.222304,0.164173,0.410885
1695,0.232979,0.051134,0.487086
1696,-0.126179,-0.007841,0.284524
1697,-0.082684,-0.127327,0.40433
1698,-0.084117,-0.162318,0.533341
1699,-0.094843,-0.321485,0.546719
1700,-0.081573,-0.425658,0.47588
1701,-0.073899,-0.511578,0.432005
1702,-0.037519,-0.470083,0.330845
1703,-0.024403,-0.300267,0.198956
1704,-0.037412,-0.189272,0.260358
1705,-0.145105,0.131764,0.311468
1706,-0.557125,1.046279,0.580379
1707,-0.49303,1.154757,0.414613
1708,-0.163618,0.463009,-0.283145
1709,0.299668,0.108127,-0.137065
1710,0.274437,0.264872,0.111708
1711,0.03295,0.698467,0.585307
1712,-0.395625,0.49496,1.077862
1713,-0.331785,0.108971,0.907612
1714,-0.084904,0.069309,0.530784
1715,0.167722,0.235893,0.559815
1716,0.140178,0.328807,0.776584
1717,-0.070751,0.310617,0.937541
1718,-0.254302,0.282783,0.765252
1719,-0.324998,0.117118,0.403223
1720,-0.188416,0.052821,0.452754
1721,-0.035985,-0.06322,0.559567
1722,0.074571,-0.257002,0.640259
1723,0.104494,-0.253436,0.622111
1724,0.08574,-0.217485,0.579285
1725,0.018589,-0.051042,0.344561
1726,-0.024342,-0.03554,0.266264
1727,-0.02341,-0.098867,0.247266
1728,0.004228,-0.102582,0.219432
1729,-0.047485,0.017828,0.143386
1730,-0.122716,0.105501,0.208108
1731,-0.159869,0.153952,0.244299
1732,0.395185,0.063725,0.381534
1733,0.465613,0.055376,0.225889
1734,0.316739,0.170992,0.161923
1735,-0.192346,0.508286,0.34739
1736,-0.337409,0.537415,0.631535
1737,-0.262475,0.375216,0.782145
1738,-0.402065,0.102968,0.966298
1739,-0.486095,0.382257,0.639433
1740,-0.493436,0.397203,0.676441
1741,-0.387091,0.50736,0.422555
1742,-0.299672,0.368446,0.39625
1743,-0.307694,0.386584,0.428449
1744,0.291816,0.2093,0.362057
1745,0.374415,0.163475,0.390729
1746,0.109025,-0.005826,0.374662
1747,0.047675,-0.178356,0.459171
1748,-0.082908,-0.228207,0.506744
1749,-0.103774,-0.254825,0.500645
1750,-0.105365,-0.348843,0.500144
1751,-0.10444,-0.416586,0.457131
1752,-0.074731,-0.452687,0.403301
1753,-0.026725,-0.414731,0.224257
1754,0.011661,-0.174605,0.298275
1755,-0.032779,-0.055532,0.31932
1756,-0.38212,0.426978,0.428451
1757,-0.450833,1.316397,0.371092
1758,-0.279476,0.816476,0.006062
1759,0.366671,-0.03832,-0.185704
1760,0.363379,0.15548,0.192414
1761,0.111291,0.519175,0.504187
1762,-0.55624,0.933557,1.289687
1763,-0.537352,0.545617,1.177563
1764,0.070907,0.064314,0.541002
1765,0.287681,-0.009952,0.58313
1766,0.26804,0.170402,0.641466
1767,0.125557,0.280106,0.929459
1768,-0.230837,0.258142,0.870346
1769,-0.444073,0.230322,0.448056
1770,-0.1737,0.144458,0.39497
1771,-0.041589,0.003685,0.483762
1772,0.084897,-0.200607,0.649226
1773,0.070733,-0.268401,0.71299
1774,0.0584,-0.20675,0.606842
1775,0.030838,-0.075755,0.393964
1776,0.053834,0.026241,0.321565
1777,0.016854,0.015076,0.336287
1778,0.044552,-0.043713,0.282151
1779,0.028023,-0.011545,0.161111
1780,-0.060869,0.097444,0.112241
1781,0.090023,0.118806,0.241818
1782,0.295219,0.047367,0.335172
1783,0.326003,0.1531,0.262023
1784,0.092348,0.431634,0.125746
1785,-0.036358,0.511269,0.150664
1786,-0.350024,0.413059,0.407484
1787,-0.197652,0.209157,0.657824
1788,-0.103539,0.049692,0.782377
1789,-0.119545,-0.107991,0.906427
1790,-0.407417,0.384033,0.651956
1791,-0.443021,0.538753,0.55656
1792,-0.438188,0.668175,0.371602
1793,-0.330647,0.458285,0.432771
1794,-0.337483,0.475425,0.464284
1795,0.153801,0.091329,0.307165
1796,0.266068,-0.027918,0.446251
1797,0.194551,-0.061395,0.462204
1798,-0.119261,-0.187089,0.454836
1799,-0.140388,-0.206065,0.476322
1800,-0.148034,-0.228604,0.509282
1801,-0.135223,-0.330047,0.502395
1802,-0.075415,-0.403758,0.47323
1803,-0.054527,-0.391598,0.435538
1804,-0.071985,-0.357696,0.255507
1805,-0.042551,-0.027609,0.159707
1806,-0.048532,0.101682,0.188661
1807,-0.280102,0.602376,0.336072
1808,-0.472507,1.075599,0.233476
1809,-0.322815,0.683898,-0.028485
1810,-0.065603,0.464707,-0.216125
1811,0.035156,0.772603,0.692479
1812,-0.085179,0.744617,1.082331
1813,-0.339159,-0.160243,0.68962
1814,-0.137452,-0.008959,0.416124
1815,0.228067,0.087019,0.473635
1816,0.223524,0.564982,0.734938
1817,0.161612,0.542613,0.805732
1818,-0.053711,0.183619,0.943405
1819,-0.448644,0.066515,0.515092
1820,-0.30602,0.054425,0.49895
1821,-0.249438,0.041463,0.481617
1822,-0.038764,-0.178386,0.655423
1823,0.048728,-0.272391,0.678413
1824,0.051113,-0.238948,0.633007
1825,0.078191,-0.006928,0.429051
1826,0.070549,0.032672,0.332504
1827,0.03358,-0.015353,0.303635
1828,0.107477,-0.083562,0.243178
1829,0.073578,-0.018933,0.145019
1830,-0.001564,0.027265,0.067945
1831,-0.17818,0.092422,0.277814
1832,0.293551,0.015549,0.412212
1833,0.385102,0.097502,0.354905
1834,0.134764,0.39151,0.097283
1835,-0.274398,0.562193,0.247473
1836,-0.305116,0.437806,0.531767
1837,-0.069,0.138876,0.958987
1838,-0.249449,0.103484,0.967259
1839,-0.444204,0.380702,0.645841
1840,-0.419313,0.462321,0.53819
1841,-0.517711,0.557788,0.488997
1842,-0.538955,0.459654,0.435642
1843,-0.255389,0.213773,0.423406
1844,0.032821,0.201639,0.239889
1845,0.132273,0.19403,0.346587
1846,0.124141,0.102615,0.429001
1847,-0.102934,-0.085099,0.477854
1848,-0.128535,-0.155665,0.495903
1849,-0.112775,-0.253269,0.542467
1850,-0.109958,-0.398016,0.502576
1851,-0.095654,-0.379695,0.510004
1852,-0.069297,-0.448132,0.483192
1853,-0.044148,-0.420165,0.273048
1854,-0.009444,-0.320954,0.227241
1855,0.006619,-0.027993,0.268508
1856,-0.44178,0.723317,0.464951
1857,-0.51067,1.17125,0.603069
1858,-0.412501,1.001698,0.057882
1859,0.134291,0.361799,-0.349446
1860,0.330133,0.249304,-0.032844
1861,-0.007496,0.656135,0.564163
1862,-0.402514,0.270422,0.954827
1863,-0.480797,-0.104435,0.719219
1864,-0.056568,0.050703,0.52554
1865,0.147944,0.113728,0.517029
1866,0.273863,0.597341,0.741158
1867,0.14054,0.379385,0.924363
1868,-0.246402,0.234151,0.747613
1869,-0.36723,0.076933,0.442151
1870,-0.315061,0.072838,0.485396
1871,-0.184576,0.000406,0.56627
1872,-0.007104,-0.130454,0.668327
1873,0.115711,-0.183068,0.640163
1874,0.148354,-0.126705,0.621902
1875,0.143426,-0.054034,0.511275
1876,0.064221,-0.017201,0.329505
1877,0.027606,-0.083658,0.315488
1878,0.054792,-0.120747,0.289564
1879,0.061332,-0.026993,0.198382
1880,-0.057816,0.056018,0.175025
1881,-0.142219,0.103457,0.230848
1882,0.201105,0.110071,0.3931
1883,0.45887,0.136483,0.358826
1884,0.367538,0.157392,0.224154
1885,-0.057288,0.479295,0.111685
1886,-0.179804,0.372901,0.44329
1887,-0.192195,0.372503,0.439317
1888,-0.083486,0.086482,1.027545
1889,-0.331644,0.063667,0.954788
1890,-0.578529,0.223281,0.725646
1891,-0.640472,0.316961,0.58574
1892,-0.564252,0.482065,0.50191
1893,-0.486728,0.492007,0.40873
1894,-0.197708,0.398324,0.282329
1895,0.18674,0.251066,0.322649
1896,0.263034,0.23904,0.355269
1897,0.252535,0.080445,0.417692
1898,0.090553,-0.063089,0.468222
1899,-0.034915,-0.222574,0.518636
1900,-0.138793,-0.095972,0.579535
1901,-0.173419,-0.259599,0.514024
1902,-0.128314,-0.299521,0.512468
1903,-0.066036,-0.40416,0.532466
1904,-0.109964,-0.438174,0.342084
1905,-0.096822,-0.370546,0.272081
1906,0.038236,0.020078,0.159965
1907,0.040708,0.187562,0.263481
1908,-0.33928,0.968292,0.582049
1909,-0.455569,1.125918,-0.014453
1910,-0.159145,0.667821,-0.215402
1911,0.344904,-0.14663,-0.075097
1912,0.087146,0.345677,0.41053
1913,-0.224199,0.703107,0.636437
1914,-0.663754,0.753795,0.969707
1915,-0.045164,0.0822,0.709266
1916,0.190184,0.094637,0.658165
1917,0.355619,-0.011765,0.608069
1918,0.3584,0.252312,0.699482
1919,0.316826,0.269464,0.815441
1920,0.235243,0.209089,0.868211
1921,-0.375228,0.183657,0.604331
1922,-0.348046,0.064297,0.433065
1923,-0.278715,0.001237,0.438067
1924,-0.055548,-0.050089,0.619628
1925,0.040425,-0.130935,0.664931
1926,0.098877,-0.181053,0.594448
1927,0.124515,-0.108567,0.480752
1928,0.130477,-0.034583,0.411309
1929,0.093703,-0.026661,0.338151
1930,0.068884,-0.053408,0.322222
1931,0.069938,-0.056725,0.334874
1932,-0.019797,0.083188,0.273515
1933,-0.138974,0.229712,0.312429
1934,-0.042864,0.1816,0.328541
1935,0.332394,0.119513,0.390364
1936,0.405969,0.101101,0.207466
1937,0.071951,0.405005,0.177063
1938,-0.107225,0.434593,0.281355
1939,-0.194697,0.48055,0.230888
1940,0.033438,0.197754,1.02924
1941,-0.132946,0.067476,1.045424
1942,-0.437983,0.13091,0.844155
1943,-0.504548,0.315213,0.553761
1944,-0.45192,0.416497,0.521199
1945,-0.413457,0.503962,0.519369
1946,-0.147854,0.299565,0.478318
1947,-0.042816,0.226629,0.463149
1948,0.114433,0.155204,0.422502
1949,0.14396,0.039935,0.470151
1950,0.112691,0.03603,0.469078
1951,-0.028141,-0.059926,0.455044
1952,-0.037381,-0.064027,0.48636
1953,-0.061205,-0.205419,0.509003
1954,-0.082406,-0.299433,0.495113
1955,-0.072681,-0.289515,0.499436
1956,-0.026734,-0.376719,0.414121
1957,-0.013998,-0.34255,0.299642
1958,0.055992,-0.230669,0.304505
1959,0.026273,0.034142,0.370528
1960,-0.424696,0.821449,0.499687
1961,-0.417902,1.118916,0.571196
1962,-0.407049,1.086269,0.313206
1963,0.09377,0.502652,-0.302629
1964,0.466969,0.245844,-0.011883
1965,0.360648,0.29065,0.261897
1966,-0.224108,0.486509,0.699937
1967,-0.502433,0.120455,0.751879
1968,-0.475104,0.052569,0.804386
1969,0.015409,0.190386,0.610535
1970,0.215433,0.260516,0.675012
1971,0.236465,0.365263,0.726546
1972,0.130371,0.22407,0.871974
1973,-0.120581,0.198975,0.723987
1974,-0.245727,0.205184,0.535829
1975,-0.245509,0.182108,0.497775
1976,-0.19169,0.089871,0.572322
1977,-0.144543,0.001275,0.593697
1978,0.112112,-0.17272,0.572966
1979,0.155868,-0.126438,0.600027
1980,0.161398,-0.064506,0.484526
1981,0.141723,-0.067701,0.357082
1982,0.087349,-0.065559,0.323192
1983,0.086061,-0.067252,0.311329
1984,0.096588,-0.036328,0.237652
1985,-0.036397,0.057692,0.197432
1986,-0.107284,0.088964,0.317612
1987,0.101339,0.086454,0.425763
1988,0.338011,0.158238,0.337168
1989,0.257084,0.19734,0.212251
1990,0.10699,0.403535,0.129378
1991,-0.212051,0.480491,0.304683
1992,-0.208258,0.499634,0.63108
1993,0.1564,0.173437,0.895153
1994,-0.419715,0.21707,0.839038
1995,-0.488878,0.265118,0.726228
1996,-0.540905,0.295141,0.566804
1997,-0.605417,0.483099,0.483543
1998,-0.528281,0.47496,0.460143
1999,-0.229246,0.296975,0.440828
2000,0.282684,0.245474,0.424264
2001,0.325371,0.237624,0.4746
2002,0.208525,0.111035,0.504096
2003,-0.157171,-0.182703,0.373963
2004,-0.197549,-0.203578,0.521355
2005,-0.145597,-0.151978,0.597497
2006,-0.140686,-0.170106,0.543056
2007,-0.039458,-0.294096,0.460013
2008,0.010156,-0.353014,0.439977
2009,0.019385,-0.396532,0.410561
2010,0.020842,-0.309348,0.291079
2011,-0.048174,-0.031241,0.257475
2012,-0.261925,0.423975,0.417034
2013,-0.530082,1.04946,0.477076
2014,-0.277895,0.672869,-0.164297
2015,-0.041758,0.52252,-0.268766
2016,0.257874,0.317548,-0.30031
2017,0.312077,-0.051302,0.206232
2018,-0.093887,0.525726,0.501696
2019,-0.319128,0.649795,0.707924
2020,-0.584042,0.624988,1.165282
2021,-0.155409,0.442275,0.889549
2022,0.027858,0.179711,0.71743
2023,0.091599,0.163087,0.753586
2024,0.095894,0.10558,0.848728
2025,0.052807,0.074837,0.881252
2026,-0.24393,0.198751,0.620674
2027,-0.230309,0.17946,0.51349
2028,-0.244321,0.172516,0.504848
2029,0.055903,-0.149348,0.607235
2030,0.102028,-0.250771,0.644614
2031,0.103405,-0.238473,0.719319
2032,0.03214,-0.089437,0.521485
2033,-0.003296,0.03456,0.332756
2034,-0.038307,0.009245,0.228865
2035,0.011083,-0.044025,0.282544
2036,-0.012107,0.00624,0.238287
2037,-0.035988,0.048833,0.232724
2038,0.104593,0.108738,0.325353
2039,0.133752,0.239577,0.361021
2040,0.21428,0.182528,0.677618
2041,-0.136973,0.278985,0.112508
2042,-0.149835,0.378613,0.276659
2043,-0.181438,0.482273,0.357447
2044,-0.141629,0.592483,0.517278
2045,0.13657,0.194415,0.939317
2046,-0.234874,0.025455,0.982923
2047,-0.593447,-0.040179,0.746235
2048,-0.647889,0.060039,0.668348
2049,-0.546278,0.218057,0.567158
2050,-0.317432,0.39348,0.500566
2051,-0.180636,0.382598,0.522378
2052,0.152101,0.252025,0.442016
2053,0.094664,0.282804,0.451042
2054,0.047466,0.281388,0.453169
2055,-0.128157,-0.015131,0.439775
2056,-0.212524,-0.13361,0.467687
2057,-0.237347,-0.194872,0.405336
2058,-0.093849,-0.28011,0.560005
2059,-0.059732,-0.276362,0.480018
2060,-0.045224,-0.370715,0.426064
2061,-0.038229,-0.534032,0.390701
2062,-0.025195,-0.453426,0.342172
2063,-0.047984,-0.217945,0.240811
2064,-0.06541,0.160238,0.171813
2065,-0.476709,0.874575,0.45379
2066,-0.486794,1.156397,0.562083
2067,-0.521961,1.119924,0.248959
2068,0.002687,0.41156,-0.202854
2069,0.068027,0.612417,0.328026
2070,-0.103116,0.722243,0.528264
2071,-0.347361,0.593941,0.846243
2072,-0.429598,0.067763,0.693848
2073,-0.158529,0.05671,0.694704
2074,0.056382,-0.101851,0.590516
2075,0.184738,0.110827,0.706455
2076,0.164775,0.316636,0.876164
2077,-0.002784,0.400524,0.926453
2078,-0.295216,0.255592,0.681369
2079,-0.372019,0.10236,0.435354
2080,-0.208001,-0.005812,0.408685
2081,-0.076303,-0.059546,0.57097
2082,0.023295,-0.161069,0.668317
2083,0.049364,-0.156135,0.629292
2084,0.018723,-0.019339,0.519213
2085,-0.025206,-0.01232,0.472716
2086,-0.073611,-0.009345,0.38849
2087,-0.074948,-0.048622,0.311305
2088,-0.041722,-0.050164,0.311743
2089,0.022819,-0.008784,0.307263
2090,-0.08331,0.147608,0.29049
2091,-0.15904,0.185633,0.321307
2092,0.112954,0.082948,0.387327
2093,0.225723,0.142434,0.382542
2094,0.250936,0.227333,0.254406
2095,-0.325618,0.577922,0.243684
2096,-0.223149,0.552237,0.429681
2097,-0.127889,0.282729,0.755994
2098,-0.032695,0.019877,1.038793
2099,-0.303139,0.038703,0.939398
2100,-0.527436,0.150838,0.759705
2101,-0.502306,0.394511,0.528106
2102,-0.461826,0.483155,0.491631
2103,-0.364293,0.3834,0.477049
2104,-0.066436,0.23019,0.48403
2105,0.113082,0.197983,0.448625
2106,0.193599,0.179527,0.461013
2107,0.088345,0.003584,0.626437
2108,-0.152426,-0.09574,0.461345
2109,-0.13153,-0.13396,0.520457
2110,-0.119862,-0.194021,0.56185
2111,-0.111034,-0.217713,0.544286
2112,-0.110463,-0.29352,0.532365
2113,-0.138808,-0.38584,0.492269
2114,-0.119014,-0.379128,0.377892
2115,-0.054287,-0.249677,0.309759
2116,-0.134191,0.23378,0.332785
2117,-0.264027,0.462617,0.336485
2118,-0.365386,0.719606,0.382701
2119,-0.284612,0.911952,0.160093
2120,0.078862,0.490952,-0.22215
2121,0.253284,0.375179,-0.217824
2122,0.219421,0.374619,0.26702
2123,-0.281759,0.699946,0.67467
2124,-0.343903,0.593906,0.87913
2125,-0.522688,0.292653,0.900026
2126,-0.014382,0.025646,0.629822
2127,0.100149,-0.077361,0.596528
2128,0.208406,0.179159,0.740623
2129,0.241585,0.253166,0.87035
2130,0.10234,0.335326,0.919268
2131,-0.191182,0.266979,0.638722
2132,-0.283555,0.07359,0.440395
2133,-0.24344,0.016514,0.441036
2134,-0.095159,-0.073763,0.601925
2135,0.06719,-0.170229,0.662435
2136,0.141203,-0.104744,0.646484
2137,0.139719,0.026995,0.533318
2138,0.064488,0.022083,0.381665
2139,0.025691,-0.018501,0.349577
2140,0.004637,-0.040792,0.345964
2141,0.074144,-0.02922,0.328054
2142,0.045152,0.002994,0.306449
2143,-0.19817,0.174947,0.412262
2144,-0.145109,0.171269,0.418704
2145,0.048328,0.125155,0.448695
2146,0.312829,0.20398,0.326929
2147,0.188512,0.274666,0.210714
2148,-0.009857,0.471963,0.221054
2149,-0.099031,0.547148,0.392688
2150,0.035586,0.451832,0.724514
2151,0.184348,0.158922,0.985326
2152,-0.316102,-0.05104,0.923653
2153,-0.470016,0.082159,0.796071
2154,-0.55607,0.218984,0.606966
2155,-0.432153,0.42733,0.468136
2156,-0.301431,0.490711,0.454381
2157,-0.043397,0.356419,0.489699
2158,0.157748,0.141681,0.481117
2159,0.146638,0.114808,0.49264
2160,0.049817,0.045451,0.451377
2161,0.004469,0.029123,0.457881
2162,-0.059336,-0.006215,0.45319
2163,-0.120906,-0.059798,0.531818
2164,-0.129201,-0.184206,0.583148
2165,-0.118464,-0.267615,0.536438
2166,-0.078788,-0.272723,0.526809
2167,-0.031029,-0.345246,0.489303
2168,-0.042134,-0.213419,0.339976
2169,-0.049575,-0.11023,0.351799
2170,-0.11016,0.199904,0.367591
2171,-0.341944,0.724246,0.505905
2172,-0.299042,0.852731,0.469558
2173,-0.105457,0.712633,0.007891
2174,0.138983,0.441029,-0.22895
2175,0.391881,0.506588,0.117753
2176,0.130764,0.687377,0.542289
2177,-0.241684,0.750444,0.77074
2178,-0.502761,0.351831,0.869875
2179,-0.290851,-0.093103,0.679643
2180,-0.057949,-0.114169,0.530009
2181,0.207171,-0.07407,0.543457
2182,0.313106,0.335767,0.774894
2183,0.055881,0.520553,0.879
2184,-0.098767,0.462375,0.752455
2185,-0.336998,0.231788,0.502506
2186,-0.200846,-0.010129,0.48225
2187,-0.127683,-0.043496,0.563019
2188,0.088496,-0.106418,0.686097
2189,0.10378,-0.118852,0.671246
2190,0.116557,-0.087263,0.617326
2191,0.101054,-0.037738,0.498052
2192,0.070191,-0.033414,0.466495
2193,0.038219,-0.03143,0.43595
2194,0.033476,-0.028626,0.375392
2195,0.088462,0.007352,0.31937
2196,0.082121,0.05532,0.312883
2197,-0.012834,0.195389,0.352835
2198,0.201123,0.124715,0.426954
2199,0.388443,0.099331,0.53216
2200,0.298901,0.227654,0.271291
2201,-0.015801,0.471915,0.108689
2202,-0.227956,0.46596,0.343172
2203,-0.190329,0.464328,0.489932
2204,0.066981,0.357567,0.830886
2205,0.068586,0.028772,1.009403
2206,-0.233622,0.067934,0.852779
2207,-0.356579,0.158437,0.75217
2208,-0.418036,0.310035,0.599367
2209,-0.442785,0.413118,0.570161
2210,-0.197046,0.352096,0.49013
2211,-0.06169,0.282413,0.486179
2212,0.127407,0.156807,0.474261
2213,0.183703,0.1,0.578202
2214,0.051702,0.072859,0.550749
2215,-0.029003,0.002034,0.484589
2216,-0.053982,-0.01879,0.5339
2217,-0.045536,-0.074114,0.549842
2218,-0.011912,-0.218902,0.580201
2219,0.01227,-0.311406,0.527182
2220,0.019111,-0.333525,0.504165
2221,0.00274,-0.355503,0.404608
2222,0.03023,-0.175822,0.308377
2223,0.027151,-0.04448,0.274402
2224,-0.069051,0.327446,0.329925
2225,-0.204567,0.992657,0.586262
2226,-0.202771,0.924358,0.336246
2227,0.121149,0.488166,-0.175526
2228,0.245615,0.305721,-0.180658
2229,0.24479,0.206737,0.132622
2230,-0.249775,0.743001,0.640743
2231,-0.374073,0.730121,0.823519
2232,-0.324133,0.18424,0.915401
2233,-0.063884,0.319773,0.748893
2234,0.063897,0.098411,0.59667
2235,0.093872,0.203062,0.675106
2236,0.1327,0.304096,0.990996
2237,-0.143457,0.280032,0.783928
2238,-0.239064,0.249831,0.552825
2239,-0.087089,0.087472,0.479031
2240,-0.04133,0.06134,0.599311
2241,-0.016095,0.033188,0.626053
2242,0.135101,-0.123145,0.603262
2243,0.137683,-0.096159,0.608642
2244,0.117264,-0.068903,0.565045
2245,0.010395,0.022957,0.391162
2246,0.013723,-0.043456,0.380285
2247,0.016315,-0.071628,0.366212
2248,0.057132,-0.024781,0.366349
2249,-0.10487,0.084054,0.262638
2250,-0.109924,0.09509,0.36298
2251,0.091606,0.163689,0.492467
2252,0.374859,0.23667,0.324367
2253,0.337212,0.253865,0.239152
2254,0.08287,0.492618,0.246832
2255,-0.209212,0.499533,0.459964
2256,-0.256322,0.461131,0.539398
2257,-0.12387,0.362096,0.814238
2258,-0.130406,0.094893,1.008243
2259,-0.45237,0.131321,0.828335
2260,-0.629421,0.202294,0.722474
2261,-0.67599,0.382823,0.56548
2262,-0.595004,0.524123,0.548286
2263,-0.370947,0.408069,0.483246
2264,-0.118089,0.297019,0.493733
2265,0.123758,0.151524,0.448612
2266,0.20206,0.055813,0.46288
2267,-0.082301,-0.126147,0.392064
2268,-0.128783,-0.13583,0.419662
2269,-0.210781,-0.104801,0.454478
2270,-0.222693,-0.143246,0.467085
2271,-0.159044,-0.230493,0.453328
2272,-0.106388,-0.256085,0.414893
2273,-0.036062,-0.280414,0.377883
2274,-0.015482,-0.282231,0.311663
2275,-0.030933,-0.15148,0.269777
2276,-0.021279,-0.018616,0.255917
2277,-0.348268,0.651721,0.319559
2278,-0.580039,0.947496,0.526976
2279,-0.476157,0.705383,-0.026857
2280,-0.137705,0.351634,-0.259712
2281,0.08039,0.196918,-0.022312
2282,-0.143332,0.38352,0.456204
2283,-0.338918,0.603487,0.833277
2284,-0.481299,0.25926,1.039169
2285,-0.290343,0.359069,0.872118
2286,-0.165165,0.505864,0.706098
2287,-0.040277,0.290657,0.621054
2288,-0.062514,0.330439,0.742991
2289,-0.100545,0.28105,0.827441
2290,-0.432467,0.216348,0.636371
2291,-0.368006,0.160473,0.542221
2292,-0.298893,0.118104,0.533775
2293,-0.133595,-0.018472,0.691724
2294,-0.096552,-0.240195,0.702141
2295,-0.093898,-0.238829,0.680151
2296,-0.094132,-0.092344,0.559052
2297,-0.129197,0.069236,0.389967
2298,-0.11422,0.076267,0.306374
2299,-0.070865,-0.013299,0.280691
2300,-0.008265,-0.025688,0.296499
2301,-0.020431,0.007459,0.277125
2302,-0.133979,0.13617,0.261139
2303,-0.163458,0.197849,0.326748
2304,0.253202,0.124469,0.506462
2305,0.145034,0.252143,0.243505
2306,-0.056979,0.354771,0.246864
2307,-0.322142,0.526681,0.160497
2308,-0.374376,0.47019,0.388233
2309,-0.232783,0.228171,0.66353
2310,-0.163368,-0.068054,0.953747
2311,-0.442326,0.003989,0.933766
2312,-0.583072,0.295695,0.706518
2313,-0.621352,0.558217,0.431882
2314,-0.589609,0.635959,0.448352
2315,-0.372781,0.418082,0.47052
2316,-0.0097,0.19325,0.469509
2317,0.042856,0.220915,0.355645
2318,0.137492,0.141005,0.431006
2319,0.079413,0.125362,0.410829
2320,-0.217216,-0.042245,0.444712
2321,-0.324371,-0.098682,0.488756
2322,-0.296694,-0.120619,0.514335
2323,-0.206115,-0.234187,0.525589
2324,-0.147229,-0.300991,0.521502
2325,-0.116946,-0.342862,0.485751
2326,-0.083069,-0.300803,0.315585
2327,-0.037264,-0.253802,0.325226
2328,-0.226435,0.209757,0.603851
2329,-0.673133,0.858531,0.480116
2330,-0.528176,1.028974,0.286865
2331,-0.107695,0.656533,-0.153721
2332,0.265849,0.22866,-0.233552
2333,0.238208,0.39566,0.256524
2334,-0.231063,0.741343,0.77584
2335,-0.698014,0.264513,0.829095
2336,-0.698419,0.268237,0.833052
2337,-0.485865,0.272736,0.785183
2338,0.192081,0.039492,0.655284
2339,0.228208,0.252567,0.855085
2340,0.124453,0.380015,0.892384
2341,-0.121843,0.442445,0.844415
2342,-0.394727,0.35216,0.602982
2343,-0.425051,0.256367,0.491114
2344,-0.298022,0.053541,0.558635
2345,-0.062395,-0.101337,0.661656
2346,-0.034609,-0.132873,0.64553
2347,0.040355,-0.093392,0.648113
2348,0.075909,-0.026998,0.582087
2349,0.009054,0.000115,0.439046
2350,-0.050711,0.008085,0.377403
2351,-0.057829,0.000883,0.365037
2352,-0.069063,-0.008161,0.360071
2353,-0.117991,0.07902,0.340636
2354,-0.215437,0.152085,0.273204
2355,-0.21406,0.145445,0.259239
2356,0.084985,0.093469,0.417902
2357,0.377497,0.175684,0.382023
2358,0.326312,0.2997,0.212718
2359,0.05143,0.52879,0.220714
2360,-0.369646,0.489569,0.384383
2361,-0.242759,0.239177,0.713329
2362,-0.113176,0.080415,0.992978
2363,-0.39657,0.169684,0.90321
2364,-0.508032,0.454281,0.658033
2365,-0.503138,0.567657,0.43029
2366,-0.517796,0.510212,0.457361
2367,-0.409712,0.382905,0.51127
2368,-0.010994,0.148767,0.456514
2369,0.10924,0.059809,0.446945
2370,0.075444,0.010752,0.497074
2371,-0.033485,-0.018406,0.50549
2372,-0.065628,-0.045057,0.521874
2373,-0.161241,-0.124753,0.507104
2374,-0.197589,-0.179654,0.501522
2375,-0.213681,-0.216289,0.493569
2376,-0.17392,-0.169386,0.485328
2377,-0.127077,-0.221089,0.394187
2378,-0.130656,-0.195899,0.319597
2379,-0.091964,-0.119609,0.545688
2380,-0.322992,0.263831,0.523275
2381,-0.534923,0.825958,0.636223
2382,-0.38457,0.757127,0.205778
2383,-0.144683,0.63742,-0.180368
2384,0.203527,0.482144,-0.029663
2385,0.122205,0.78042,0.452983
2386,-0.281333,0.696354,0.911446
2387,-0.529581,0.279192,0.822141
