,userAcceleration.x,userAcceleration.y,userAcceleration.z
0,0.125111,-0.346367,0.55929
1,0.049208,-0.602434,0.64939
2,-0.014474,-0.626683,0.68307
3,-0.120474,-0.631758,0.778217
4,-0.203015,-0.650614,0.760778
5,-0.21882,-0.717413,0.711435
6,-0.310727,-0.774939,0.618834
7,-0.358016,-0.719239,0.474576
8,-0.341032,-0.388342,0.217812
9,-0.361748,0.371525,-0.558654
10,-0.500097,2.252343,-1.86378
11,0.96728,2.314411,-1.158094
12,0.710727,0.398759,-0.511074
13,0.036202,-0.188155,-0.200466
14,-0.343236,-0.360007,0.267965
15,-0.378677,-0.267499,0.72274
16,-0.15409,0.546771,0.356059
17,-0.141578,0.540568,-0.033206
18,-0.199775,-0.505132,0.847153
19,-0.241697,-0.612414,0.720318
20,-0.176012,-0.463277,0.94547
21,-0.159212,-0.006981,0.830929
22,-0.125353,0.287028,0.456589
23,0.166995,0.484621,0.371547
24,0.411199,0.45039,0.237311
25,0.123633,0.183659,0.080221
26,-0.111762,-0.25918,0.15178
27,-0.176879,-0.364172,0.160622
28,-0.164898,-0.413004,0.096329
29,-0.011532,-0.276591,0.133694
30,0.071895,-0.019929,-0.10528
31,0.122717,0.013198,-0.055618
32,0.149103,-0.065702,-0.220551
33,0.070956,-0.151787,-0.203326
34,0.233893,-0.182477,-0.16102
35,0.475479,0.188891,-0.11365
36,0.449639,0.109318,-0.297894
37,0.27562,0.262057,-0.200395
38,0.227293,0.320433,-0.18893
39,0.295734,0.262167,-0.079683
40,0.554134,0.424726,0.022581
41,0.459369,0.396383,-0.358125
42,0.40523,0.456472,-0.526064
43,0.283057,0.609163,-0.636292
44,0.348975,0.545361,-0.742071
45,0.456146,0.572393,-0.563862
46,0.060129,0.368777,0.356301
47,-0.400216,0.530304,1.080114
48,-0.629922,0.61535,1.024295
49,-0.114729,0.434373,0.08316
50,-0.127339,0.439434,0.135762
51,-0.018413,0.25676,0.250428
52,0.26568,0.102454,0.319487
53,0.307032,-0.010915,0.541275
54,0.242233,-0.046255,0.680965
55,0.086468,-0.274291,0.572458
56,0.00504,-0.442795,0.622461
57,0.019502,-0.523501,0.629259
58,-0.087219,-0.53411,0.682842
59,-0.146579,-0.562074,0.706313
60,-0.118616,-0.574625,0.716717
61,-0.187073,-0.637953,0.700782
62,-0.437595,-0.689549,0.61625
63,-0.467972,-0.638481,0.472568
64,-0.401104,-0.364108,0.201135
65,-0.273528,0.245924,-0.587461
66,-0.093905,1.613316,-1.735755
67,0.274545,2.337351,-1.624737
68,0.796829,0.628701,-0.506316
69,0.126737,-0.13184,-0.400926
70,-0.149544,-0.366381,-0.158823
71,-0.501872,-0.599063,0.60553
72,-0.316951,-0.250692,0.621471
73,-0.357407,0.139144,0.430936
74,0.088366,0.954803,-0.13643
75,0.264033,-0.184914,1.042315
76,0.105156,-0.442379,0.778525
77,-0.169643,-0.479237,0.713498
78,-0.232134,-0.148339,0.662697
79,-0.170764,0.16358,0.506826
80,0.169241,0.483752,0.363722
81,0.39897,0.534055,0.03786
82,0.174523,-0.04767,0.010695
83,-0.021395,-0.326176,0.236276
84,-0.053432,-0.352143,0.342578
85,0.028446,-0.278483,0.235275
86,0.056029,-0.195396,0.034511
87,0.049871,0.092324,-0.169331
88,0.141821,0.00961,-0.308211
89,0.143398,-0.015453,-0.31064
90,0.157307,-0.146464,-0.168874
91,0.414339,0.015554,0.079128
92,0.561898,0.11129,0.096506
93,0.688557,0.02615,-0.174023
94,0.198719,0.209726,-0.227203
95,0.141438,0.242242,-0.07041
96,0.378352,0.368736,0.131972
97,0.607838,0.501788,0.134467
98,0.582905,0.436295,-0.251733
99,0.481256,0.527816,-0.549111
100,0.503502,0.523347,-0.493372
101,0.524394,0.568999,-0.436307
102,0.3529,0.809536,-0.289163
103,-0.182439,0.341908,0.068266
104,-0.777191,0.51885,0.478515
105,-1.097776,0.616173,0.638785
106,-0.78637,0.148804,0.263017
107,-0.11953,0.225598,0.105851
108,-0.035281,0.237989,0.16163
109,0.179394,0.258955,0.247821
110,0.504377,0.023783,0.643649
111,0.403978,-0.014167,0.660976
112,0.289876,-0.144387,0.561266
113,0.140982,-0.49485,0.593081
114,0.068279,-0.615697,0.633373
115,-0.049513,-0.672327,0.690729
116,-0.051403,-0.658058,0.734185
117,-0.078334,-0.668757,0.715117
118,-0.181929,-0.744713,0.660575
119,-0.221014,-0.766281,0.596696
120,-0.224751,-0.647615,0.37678
121,-0.228984,-0.307946,0.155176
122,-0.395159,0.818672,-1.23757
123,-0.322796,2.852722,-2.13674
124,0.863648,0.566722,-0.65494
125,0.456243,-0.204038,-0.436223
126,-0.263885,-0.53788,0.040812
127,-0.761065,-0.331194,0.796964
128,-0.338854,-0.053379,0.761788
129,-0.228069,0.749893,-0.078976
130,0.327274,0.227035,0.87294
131,-0.305762,-0.433794,0.711513
132,-0.300059,-0.401864,0.844722
133,-0.357694,0.104853,0.867222
134,-0.32173,0.197359,0.638563
135,0.094645,0.306773,0.449505
136,0.327126,0.258288,0.097761
137,0.165842,0.2161,0.010621
138,0.026546,-0.045995,0.117008
139,-0.060318,-0.253634,0.140503
140,-0.066648,-0.335345,0.178821
141,0.110788,-0.20443,0.23814
142,0.185904,-0.123388,0.007623
143,0.217976,-0.020423,-0.049201
144,0.181313,-0.098435,-0.128128
145,0.161995,-0.201937,-0.143491
146,0.260976,-0.251957,-0.013111
147,0.343633,-0.148281,0.003189
148,0.355799,0.137884,-0.194911
149,0.293176,0.232701,-0.494638
150,0.234064,0.107343,-0.324368
151,0.335262,0.218192,-0.147395
152,0.471687,0.189578,-0.069722
153,0.826426,0.463642,0.042733
154,1.040767,0.544162,-0.066816
155,0.620586,0.776632,-0.468894
156,0.456725,0.833182,-0.384181
157,0.248009,0.722872,-0.219578
158,-0.147059,0.708645,-0.31969
159,-0.466779,0.367134,-0.085144
160,-0.687728,0.41901,0.13963
161,-1.006124,0.579963,0.705488
162,-0.68199,0.262839,0.344095
163,-0.340428,0.230682,0.259714
164,0.169703,0.182103,0.098037
165,0.260527,0.101712,0.215366
166,0.380642,0.065001,0.419252
167,0.582155,-0.023836,0.823448
168,0.25626,-0.245837,0.644391
169,0.014313,-0.631899,0.601598
170,0.039471,-0.686769,0.641254
171,0.049554,-0.71558,0.700219
172,0.008931,-0.586153,0.741359
173,-0.015313,-0.566023,0.764754
174,-0.087683,-0.591241,0.739572
175,-0.137825,-0.738762,0.598692
176,-0.138892,-0.742844,0.500098
177,-0.185124,-0.468692,0.281474
178,-0.39066,0.949927,-1.305884
179,-0.48011,2.965318,-2.217913
180,0.746964,2.678496,-1.657072
181,0.277483,-0.32237,-0.228299
182,-0.069025,-0.410554,-0.165823
183,-0.911636,-0.295809,0.097301
184,-0.009979,0.440393,0.607219
185,0.298816,0.872079,0.317443
186,0.180291,-0.286697,0.95233
187,-0.33094,-0.684673,0.768462
188,-0.280133,-0.401964,0.960461
189,-0.296136,0.034712,1.03113
190,-0.329822,0.411895,0.523739
191,-0.090537,0.401263,0.287613
192,0.223829,0.255151,0.199289
193,0.079812,0.074704,0.16518
194,0.002033,-0.06749,0.077645
195,-0.016282,-0.156581,0.013238
196,-0.05423,-0.3789,0.315612
197,0.062021,-0.229633,0.43792
198,0.282728,-0.031783,0.079627
199,0.398217,0.040622,-0.127892
200,0.3023,-0.034966,-0.085667
201,0.104324,-0.110867,-0.150063
202,0.070848,-0.215956,-0.089224
203,0.194472,0.020461,-0.064959
204,0.292599,0.135689,-0.138938
205,0.341284,0.197074,-0.235042
206,0.309999,0.280606,-0.346231
207,0.359816,0.292991,-0.253896
208,0.441387,0.280313,-0.151022
209,0.961408,0.53018,-0.064393
210,0.93845,0.518427,-0.199589
211,0.811383,0.55332,-0.397877
212,0.409126,0.603243,-0.52473
213,0.319958,0.737391,-0.182125
214,-0.322623,0.527304,-0.06687
215,-0.941387,0.726225,0.569738
216,-1.296594,0.782916,0.674175
217,-0.889409,0.23312,0.238923
218,-0.411118,0.253642,0.19452
219,-0.202371,0.325081,0.184903
220,0.25484,0.195213,0.296414
221,0.422512,-0.020309,0.644535
222,0.52558,0.118264,0.781151
223,0.177623,-0.268502,0.647826
224,-0.006265,-0.54008,0.629348
225,-0.014527,-0.623393,0.666785
226,0.009852,-0.670093,0.750764
227,0.029653,-0.657776,0.781115
228,0.010556,-0.66282,0.782527
229,-0.146499,-0.770819,0.720598
230,-0.190607,-0.806135,0.66117
231,-0.18103,-0.662987,0.430493
232,-0.173001,-0.184327,0.095231
233,-0.336471,1.126565,-1.333049
234,-0.284599,2.893134,-1.75051
235,0.799043,1.282361,-0.823796
236,0.144645,-0.195822,-0.472546
237,-0.596191,-0.20244,-0.022617
238,-0.960817,-0.293763,0.446584
239,-0.096752,0.031122,0.840783
240,0.086544,0.56655,0.308389
241,0.489124,-0.199598,1.011217
242,-0.51863,-0.320215,0.517887
243,-0.648354,-0.209833,0.193173
244,-0.358917,-0.006511,1.00292
245,-0.213155,0.086338,0.584424
246,-0.02086,0.07963,0.431066
247,0.185731,0.217919,0.404283
248,0.262685,0.306133,0.191934
249,0.143285,0.16559,0.000489
250,0.088107,-0.134713,0.102166
251,-0.01257,-0.398535,0.389202
252,0.037947,-0.369733,0.337455
253,0.143378,-0.247168,0.110617
254,0.031685,0.071034,0.03493
255,-0.040813,0.049949,-0.003808
256,-0.028718,0.006929,-0.053927
257,0.234734,-0.15657,-0.124548
258,0.479222,0.022176,-0.025548
259,0.399191,0.183644,-0.221429
260,0.327489,0.196739,-0.316268
261,0.386107,0.354104,-0.196564
262,0.412443,0.339295,-0.082968
263,0.591827,0.487884,0.033021
264,0.575379,0.447731,-0.124068
265,0.287755,0.44665,-0.550827
266,0.112438,0.413792,-0.561511
267,0.433725,0.379225,-0.686539
268,0.614099,0.397439,-0.246755
269,0.541161,0.378683,-0.034706
270,-0.126789,0.46452,0.132948
271,-0.57351,0.835053,1.05807
272,-0.987791,0.678141,0.673568
273,-0.316071,0.296538,0.261485
274,-0.065693,0.273334,0.186006
275,-0.035883,0.254659,0.201332
276,0.248224,0.081301,0.351085
277,0.346556,-0.054625,0.627827
278,0.362323,0.040371,0.780185
279,0.179802,-0.252845,0.740577
280,0.085562,-0.446023,0.699872
281,-0.019464,-0.583507,0.719023
282,-0.064575,-0.622543,0.768383
283,-0.09024,-0.679101,0.78411
284,-0.115154,-0.757227,0.83394
285,-0.092497,-0.763776,0.815973
286,-0.348952,-0.709362,0.718374
287,-0.354789,-0.516683,0.431355
288,-0.333076,-0.096807,0.172223
289,-0.34059,0.985149,-1.291018
290,-0.342452,2.894304,-2.075196
291,0.980856,1.314534,-0.624698
292,0.348636,-0.166621,-0.355162
293,-0.499371,-0.437846,0.091383
294,-0.526372,-0.731377,0.57993
295,-0.1292,-0.635071,1.031736
296,-0.358375,0.400505,0.115435
297,-0.045523,1.899172,-0.253413
298,0.39931,-0.133719,1.33925
299,0.034915,-0.618043,0.739512
300,-0.224497,-0.456283,0.924802
301,-0.424705,0.006819,0.554283
302,-0.358016,0.057142,0.462395
303,0.074561,0.324073,0.318328
304,0.389298,0.466817,0.051436
305,0.241543,0.128538,0.068661
306,0.024903,-0.243199,0.274876
307,0.020577,-0.382279,0.341346
308,0.031226,-0.240264,0.286417
309,0.122654,-0.157275,-0.001737
310,0.070372,-0.051012,-0.115044
311,-0.031294,-0.034339,-0.242468
312,0.080751,-0.101451,-0.07784
313,0.325405,-0.209709,0.071882
314,0.459874,-0.039755,0.030036
315,0.608868,0.208337,-0.194408
316,0.479848,0.258459,-0.460445
317,0.025788,0.34984,-0.220273
318,-0.001179,0.342905,-0.133135
319,0.384563,0.443276,-0.041056
320,0.600277,0.411421,-0.227422
321,0.494431,0.492732,-0.482284
322,0.336989,0.682282,-0.551163
323,0.514509,0.695203,-0.452525
324,0.39263,0.75442,-0.07187
325,-0.185523,0.3385,-0.039356
326,-0.841998,0.672055,0.904786
327,-1.007613,0.791557,0.854968
328,-1.108487,0.637052,0.561601
329,-0.170682,0.218297,0.180164
330,-0.17777,0.231494,0.232748
331,0.388357,0.149372,0.352449
332,0.630834,0.049375,0.738118
333,0.397807,-0.036074,0.641776
334,0.190745,-0.16527,0.641125
335,0.030585,-0.619039,0.595669
336,0.012046,-0.658074,0.678075
337,-0.009044,-0.679793,0.745835
338,-0.097343,-0.592185,0.777601
339,-0.132727,-0.559339,0.760855
340,-0.149477,-0.565652,0.674823
341,-0.175661,-0.618043,0.567597
342,-0.219632,-0.480533,0.322496
343,-0.235849,-0.131181,-0.046173
344,-0.414442,1.175087,-1.307454
345,-0.000157,2.715829,-1.566563
346,0.53785,0.350282,-0.548998
347,-0.005899,-0.307011,-0.261128
348,-0.219189,-0.411906,-0.047517
349,-0.457557,-0.569013,0.56366
350,-0.398599,-0.509248,0.715117
351,-0.254238,0.191352,0.716588
352,-0.099022,0.783571,-0.296645
353,0.217778,-0.127817,0.913209
354,-0.068793,-0.366029,0.582758
355,-0.001418,-0.374674,0.816835
356,0.019567,-0.078402,0.838969
357,0.084012,0.152667,0.620305
358,0.21295,0.321027,0.442657
359,0.339772,0.36155,0.2106
360,0.046803,0.131598,-0.007822
361,-0.070499,-0.074028,0.139901
362,-0.111512,-0.327836,0.176391
363,-0.101203,-0.37064,0.256831
364,0.034355,-0.214816,0.085545
365,0.149409,-0.062681,0.062662
366,0.146883,0.024628,0.081237
367,0.110557,-0.0737,-0.099942
368,0.034356,-0.257692,-0.220026
369,0.042764,-0.290213,-0.191284
370,0.313271,0.050504,0.063882
371,0.541651,0.106121,-0.00412
372,0.473112,0.156132,-0.272844
373,0.279755,0.268256,-0.287786
374,0.325224,0.397521,0.00985
375,0.42881,0.449649,0.066455
376,0.535345,0.430957,-0.000774
377,0.495699,0.638164,-0.588626
378,0.55683,0.662292,-0.568071
379,0.618509,0.650971,-0.488173
380,0.240664,0.722817,0.00427
381,-0.168436,0.524016,0.16406
382,-0.563133,0.397393,0.466966
383,-0.988774,0.386524,0.476492
384,-0.756441,0.210614,0.234001
385,-0.352697,0.198472,0.174433
386,0.09655,0.165006,0.283547
387,0.238652,0.107555,0.341741
388,0.325534,-0.049802,0.608909
389,0.375229,-0.099573,0.653962
390,0.157576,-0.061675,0.699323
391,0.029357,-0.417865,0.588914
392,0.010646,-0.47391,0.682086
393,-0.043974,-0.48831,0.708603
394,-0.149545,-0.565884,0.724614
395,-0.148745,-0.606108,0.738336
396,-0.154542,-0.653439,0.698467
397,-0.25533,-0.709436,0.567301
398,-0.324996,-0.505057,0.325682
399,-0.306289,-0.342993,0.142856
400,-0.42232,1.632013,-1.826654
401,0.703689,2.543725,-1.406711
402,0.687631,0.511082,-0.567681
403,0.060868,-0.349764,-0.210953
404,-0.767055,-0.279907,0.402953
405,-0.764175,-0.221872,0.718396
406,-0.292251,0.170058,0.259963
407,0.35499,0.326445,0.459457
408,0.172414,-0.165152,1.482579
409,-0.149671,-0.027933,0.640127
410,-0.117438,0.170952,0.98906
411,-0.065905,0.292766,0.682292
412,0.085692,0.095093,0.538808
413,0.037461,0.067337,0.431672
414,0.029398,0.051182,0.300131
415,-0.088501,0.052731,0.168544
416,-0.026448,-0.027561,0.150737
417,0.018247,-0.178455,0.199704
418,0.042909,-0.357181,0.15131
419,0.10896,-0.223246,0.121418
420,0.127614,-0.075392,0.071704
421,0.147473,0.006773,0.028031
422,0.216007,-0.078833,-0.155455
423,0.213288,-0.130443,-0.234919
424,0.184083,-0.16713,-0.186368
425,0.22234,-0.059965,0.190772
426,0.356016,0.129613,0.089602
427,0.398211,0.13893,-0.082072
428,-0.001497,0.316874,-0.226556
429,-0.00087,0.344165,-0.116478
430,0.101322,0.336707,-0.044236
431,0.734181,0.375189,-0.003269
432,0.706351,0.342774,-0.131351
433,0.580007,0.412128,-0.295407
434,0.506423,0.586679,-0.402315
435,0.403349,0.692207,-0.241894
436,0.00679,0.468289,-0.253441
437,-0.448493,0.269076,-0.004431
438,-0.783092,0.511987,0.660793
439,-0.844961,0.426575,0.738351
440,-0.377339,0.118622,0.363843
441,-0.102632,0.159718,0.368817
442,0.249558,0.312567,0.255208
443,0.445505,0.128993,0.378535
444,0.336997,-0.000479,0.517609
445,0.276715,-0.037488,0.668127
446,0.112537,-0.27408,0.667163
447,0.071423,-0.458711,0.593114
448,0.052545,-0.554236,0.651303
449,-0.045843,-0.568475,0.736376
450,-0.133627,-0.588547,0.767606
451,-0.136277,-0.604907,0.750515
452,-0.159422,-0.62797,0.690307
453,-0.24035,-0.590981,0.558056
454,-0.241975,-0.450186,0.28437
455,-0.21804,-0.200022,-0.057771
456,-0.118807,0.563918,-0.863136
457,-0.278569,2.620865,-1.785352
458,0.574933,1.590043,-0.948083
459,0.421444,0.000912,-0.395781
460,0.072172,-0.19471,-0.311084
461,-0.134909,0.135693,1.192622
462,0.190218,0.216203,1.108898
463,0.157241,0.241918,0.528146
464,-0.717029,-0.642922,1.206414
465,-0.91595,-0.336423,0.798313
466,-0.132203,-0.391857,1.043965
467,0.154319,0.540078,1.1335
468,0.143804,0.669504,0.75948
469,0.293437,0.630155,0.421867
470,0.170905,0.036783,0.300054
471,0.034373,-0.018835,0.264847
472,-0.044332,-0.017941,0.198596
473,-0.23692,-0.287284,0.079296
474,-0.24287,-0.282097,0.070424
475,-0.157829,-0.342957,0.162172
476,0.167102,-0.103193,0.171907
477,0.217729,-0.072118,0.125486
478,0.306483,-0.051579,0.089543
479,0.378742,-0.054944,-0.115545
480,0.241389,-0.105888,-0.371413
481,0.161661,-0.121434,-0.126742
482,0.3587,0.026887,0.074265
483,0.495932,0.069786,-0.139602
484,0.322656,0.0945,-0.298174
485,0.062883,0.172618,-0.030171
486,0.174378,0.320824,0.160484
487,0.554374,0.5052,-0.145039
488,0.551854,0.438908,-0.708875
489,0.469951,0.400816,-0.767976
490,0.492668,0.376527,-0.803637
491,0.416615,0.34772,-0.531069
492,0.172605,0.509602,-0.344711
493,0.491562,0.590666,0.920431
494,0.025282,0.680219,1.12044
495,-0.581789,0.852872,1.03082
496,-0.448867,0.563013,0.018993
497,-0.083764,0.363706,0.336341
498,-0.014379,0.179912,0.392474
499,0.119758,0.060029,0.385919
500,-0.013989,0.009077,0.434063
501,0.040168,-0.123013,0.742454
502,0.205964,-0.21918,0.74382
503,0.175155,-0.356217,0.701688
504,0.037627,-0.376753,0.680704
505,-0.041125,-0.354175,0.812235
506,-0.028748,-0.508611,0.853723
507,-0.013211,-0.691433,0.810936
508,-0.163495,-0.841752,0.807551
509,-0.432331,-0.753635,0.604326
510,-0.467113,-0.606031,0.394144
511,-0.440608,-0.422746,0.16961
512,-0.0554,1.754924,-1.978114
513,-0.048276,1.751617,-1.990465
514,0.603622,1.192437,-0.56678
515,0.174577,0.122243,-0.366506
516,0.016044,-0.129311,-0.394092
517,-0.770845,-0.345457,0.45713
518,-0.473882,-0.296124,0.706449
519,-0.152878,0.40566,0.295627
520,0.291909,0.888156,-0.258124
521,0.312056,-0.110996,1.329178
522,-0.039213,-0.488376,0.801642
523,-0.162325,-0.257693,0.916144
524,-0.100796,0.06026,0.886874
525,-0.091894,0.205412,0.659371
526,0.087646,0.305761,0.46464
527,0.249594,0.492755,0.275152
528,0.163225,0.316335,-0.006425
529,-0.087786,-0.049705,0.054636
530,-0.160059,-0.406247,0.225085
531,-0.103989,-0.414735,0.317738
532,0.099918,-0.165288,0.202345
533,0.110201,0.015637,0.255221
534,0.117894,-0.005315,-0.00552
535,0.169085,-0.102182,-0.209611
536,0.289676,-0.134038,-0.103052
537,0.425473,-0.100939,0.132946
538,0.452089,0.075106,0.038994
539,0.354345,0.136254,-0.376641
540,0.189444,0.153242,-0.488568
541,0.199588,0.293664,-0.23339
542,0.33535,0.220621,-0.015649
543,0.659778,0.335852,0.106071
544,0.83895,0.36949,-0.092553
545,0.67537,0.534301,-0.401999
546,0.469674,0.55801,-0.432104
547,0.379967,0.328538,-0.426682
548,0.253796,0.566766,-0.304289
549,-0.150252,0.343388,-0.032074
550,-0.787667,0.767214,0.450302
551,-1.121527,0.889684,1.010618
552,-0.953727,0.282712,0.522658
553,-0.109963,0.272638,0.272462
554,-0.041992,0.386637,0.253171
555,0.050058,0.368109,0.254579
556,0.357798,0.121987,0.465549
557,0.482146,0.107874,0.804335
558,0.227249,-0.091615,0.812428
559,-0.143518,-0.533213,0.645364
560,-0.050678,-0.689167,0.727213
561,-0.031734,-0.644385,0.766054
562,-0.09441,-0.606401,0.779545
563,-0.111873,-0.629468,0.735429
564,-0.167114,-0.639244,0.717133
565,-0.251408,-0.698043,0.69006
566,-0.31517,-0.672031,0.559447
567,-0.341596,-0.362245,0.256054
568,-0.428928,0.435282,-0.499904
569,0.116892,3.38766,-2.376986
570,1.416028,2.70356,-1.82444
571,1.701609,1.325454,-1.058151
572,-0.024039,-1.007952,0.785816
573,-0.391348,-0.967968,0.820578
574,-0.780189,-0.6849,0.683465
575,-0.663475,1.402189,-0.623925
576,0.279636,1.007948,0.923273
577,0.183545,-0.593975,1.198319
578,-0.243325,-0.687014,0.780766
579,-0.519199,-0.36944,1.017128
580,-0.444752,-0.055538,0.68698
581,-0.267517,0.211371,0.531847
582,0.134527,0.521159,0.442536
583,0.656557,0.594246,0.097054
584,0.39185,0.103123,0.036968
585,0.096485,-0.240137,0.22821
586,-0.065292,-0.413495,0.208204
587,-0.115455,-0.396837,0.498428
588,0.008289,-0.221822,0.189885
589,-0.000378,-0.046519,-0.037989
590,-0.024848,0.030592,-0.032032
591,0.100585,-0.120775,-0.141985
592,0.251324,-0.183778,-0.172429
593,0.423262,-0.0927,0.100274
594,0.413503,0.016798,0.132752
595,0.327287,0.14914,-0.111857
596,0.199869,0.131907,-0.496364
597,0.194043,0.208122,-0.265507
598,0.21211,0.199975,-0.146679
599,0.46899,0.30584,0.023403
600,0.618976,0.423703,0.013314
601,0.555517,0.512281,-0.465771
602,0.393254,0.677906,-0.533643
603,0.39436,0.597975,-0.402772
604,0.377336,0.736426,-0.214465
605,-0.186988,0.491412,-0.036062
606,-0.850882,0.602293,0.83929
607,-0.989495,0.589543,0.987865
608,-0.46416,0.287589,0.307788
609,-0.007314,0.268133,0.171427
610,0.04043,0.273866,0.280638
611,0.236645,0.145054,0.358939
612,0.245879,-0.049129,0.597354
613,0.370066,-0.004527,0.863756
614,0.148079,-0.220343,0.702407
615,0.014187,-0.415736,0.666221
616,0.007544,-0.617608,0.652858
617,0.011984,-0.621304,0.705191
618,-0.043479,-0.62512,0.771816
619,-0.139799,-0.652114,0.780822
620,-0.273213,-0.653313,0.752748
621,-0.266226,-0.592258,0.610213
622,-0.269284,-0.308954,0.362794
623,-0.390113,0.441234,-0.420915
624,-0.436867,2.337513,-1.926745
625,0.974348,2.367136,-1.492461
626,0.827808,0.197374,-0.543684
627,0.122957,-0.735815,0.058107
628,-0.38266,-0.913558,0.801298
629,-0.581583,-0.615042,1.318016
630,-0.528161,0.103177,0.516504
631,-0.723044,2.161069,-1.06469
632,0.413269,0.362395,1.70631
633,-0.004068,-0.608744,1.000879
634,-0.166329,-0.529406,1.050207
635,-0.353296,-0.05779,0.922846
636,-0.310661,0.343868,0.702719
637,0.036234,0.632222,0.505509
638,0.580084,0.52353,0.005351
639,0.137441,0.153792,0.1137
640,-0.144055,-0.147427,0.186768
641,-0.243316,-0.336945,0.095458
642,-0.266297,-0.439769,0.476795
643,-0.181141,-0.394346,0.432313
644,0.155744,-0.064454,0.138828
645,0.149317,-0.064039,0.104963
646,0.144384,-0.240741,-0.366622
647,0.385739,-0.18555,0.226425
648,0.400859,-0.181062,0.206292
649,0.454729,0.170903,0.084263
650,0.401173,0.090849,-0.406063
651,0.220218,0.156128,-0.397708
652,0.140743,0.264334,-0.286494
653,0.482865,0.371969,0.1883
654,0.666569,0.428393,0.177347
655,0.705118,0.328118,-0.115884
656,0.426086,0.656396,-0.608987
657,0.24426,0.621515,-0.730492
658,0.262246,0.501136,-0.538642
659,0.346107,0.638865,0.046079
660,0.11337,0.404207,0.719536
661,-0.51405,0.347356,1.0146
662,-1.090686,0.645303,0.398218
663,-0.297411,0.52005,0.116879
664,-0.050166,0.220824,0.383628
665,-0.074792,0.162223,0.442583
666,0.062757,0.084861,0.414515
667,0.230338,-0.09394,0.636618
668,0.346907,-0.108615,0.734827
669,0.327694,-0.325832,0.777809
670,0.062338,-0.395997,0.532907
671,-0.013343,-0.506182,0.609867
672,-0.058554,-0.512655,0.758111
673,-0.161475,-0.462074,0.801547
674,-0.172996,-0.380178,0.808992
675,-0.209927,-0.462989,0.790095
676,-0.319735,-0.537684,0.689429
677,-0.365162,-0.42503,0.445459
678,-0.327089,-0.08328,0.189119
679,-0.396836,1.139912,-1.378305
680,0.195972,2.754447,-2.406477
681,1.231793,1.056169,-0.609238
682,0.43374,-0.277988,-0.097721
683,-0.239484,-0.490763,0.243284
684,-0.432537,-0.875539,0.560168
685,-0.209971,-0.653268,1.112364
686,-0.344313,0.060063,0.704505
687,-0.750567,0.829189,-0.098604
688,0.498697,0.747815,1.17717
689,0.151627,-0.705549,0.937245
690,0.048511,-0.653184,0.878632
691,-0.004371,-0.570917,0.966979
692,-0.108432,0.280283,0.518638
693,0.017304,0.384205,0.507033
694,0.153388,0.45504,0.452732
695,0.161096,0.143524,-0.053417
696,-0.027655,0.001081,-0.004562
697,-0.151995,-0.158676,0.040461
698,-0.255013,-0.395244,0.245804
699,-0.242747,-0.332471,0.319516
700,-0.115575,-0.248026,0.323447
701,0.235898,0.043786,0.24145
702,0.321799,0.005303,0.118255
703,0.379731,-0.049681,0.019616
704,0.340421,-0.137771,0.045076
705,0.302936,-0.100504,0.038568
706,0.225105,-0.004196,-0.016403
707,0.149035,0.042505,-0.094238
708,0.195958,0.144791,-0.175678
709,0.248251,0.167864,-0.040043
710,0.363135,0.266764,0.055777
711,0.499649,0.383197,0.096488
712,0.61846,0.358714,-0.142224
713,0.426858,0.523362,-0.364846
714,0.3689,0.535716,-0.424477
715,0.53965,0.557943,-0.320184
716,0.541182,0.554939,-0.294459
717,0.355106,0.441087,-0.161351
718,-0.393294,0.355713,0.358763
719,-0.695508,0.791345,0.967254
720,-0.85384,0.766814,0.880483
721,-0.540683,0.161838,0.310114
722,-0.060337,0.246704,0.27384
723,0.295721,0.231631,0.362603
724,0.483425,0.105323,0.421732
725,0.739922,0.061478,0.753407
726,0.290088,-0.150498,0.61118
727,0.07041,-0.318771,0.607881
728,-0.011978,-0.534555,0.718381
729,-0.056973,-0.594184,0.754083
730,-0.117972,-0.617209,0.819986
731,-0.093618,-0.575145,0.792327
732,-0.087469,-0.550983,0.774959
733,-0.237223,-0.606849,0.743115
734,-0.324401,-0.633104,0.685722
735,-0.315386,-0.602685,0.553759
736,-0.276216,-0.067271,0.179948
737,-0.353187,1.190439,-1.378425
738,0.071083,2.932818,-1.906367
739,1.065842,1.349543,-0.652236
740,-0.161135,-0.19763,-0.215681
741,-0.505037,-0.088885,0.219449
742,-0.673235,-0.247357,0.297659
743,0.146017,0.150556,0.640675
744,0.14292,0.333613,0.341458
745,0.37192,0.401043,0.332642
746,-0.318313,-0.160955,0.52221
747,-0.240658,-0.201029,0.760834
748,-0.259007,-0.13166,0.873351
749,-0.107901,-0.038389,0.665466
750,-0.041032,-0.022486,0.618496
751,0.010946,0.080383,0.581801
752,0.322623,0.341426,0.083017
753,0.252744,0.191492,0.008099
754,0.147679,0.030369,0.040932
755,-0.048197,-0.287114,0.383083
756,-0.030972,-0.319623,0.428911
757,0.048074,-0.18014,0.178097
758,0.09203,-0.037025,-0.007555
759,0.129151,0.009563,0.019848
760,0.172233,-0.122959,-0.027093
761,0.208486,-0.176171,-0.015334
762,0.304142,-0.212289,0.060556
763,0.32438,0.004372,0.043399
764,0.269411,0.087046,-0.206395
765,0.172164,0.147827,-0.335442
766,0.203478,0.247977,-0.153958
767,0.437441,0.257984,0.03827
768,0.753519,0.395639,0.144141
769,0.726402,0.265471,-0.085504
770,0.415843,0.415495,-0.508787
771,0.261965,0.519487,-0.584592
772,0.471936,0.490525,-0.550445
773,0.509633,0.724094,-0.293254
774,0.104942,0.6559,0.196174
775,-0.488536,0.421767,0.915195
776,-0.992341,0.580646,0.941663
777,-1.145245,0.49677,0.416874
778,-0.355151,0.374741,0.237986
779,-0.183573,0.368289,0.275368
780,-0.129972,0.268576,0.287391
781,0.164752,-0.01265,0.447711
782,0.291102,0.001309,0.782344
783,0.313657,0.036475,0.803472
784,0.146279,-0.271137,0.600484
785,0.031686,-0.430928,0.625325
786,0.003753,-0.544373,0.717391
787,-0.061687,-0.635409,0.802309
788,-0.0969,-0.677306,0.761722
789,-0.122579,-0.683797,0.745265
790,-0.206495,-0.686212,0.727545
791,-0.321711,-0.538948,0.526783
792,-0.287978,-0.424006,0.397875
793,-0.256886,-0.240882,0.254185
794,-0.240901,2.467499,-1.650221
795,-0.233288,2.468569,-1.650823
796,1.057267,0.870221,-0.588051
797,-0.025428,-0.43611,-0.095112
798,-0.502566,-0.293956,0.189501
799,-0.913501,-0.189639,0.240999
800,-0.050073,0.4227,0.51696
801,-0.02044,0.732661,0.465945
802,0.306467,0.393711,0.709955
803,-0.335092,-0.155735,0.436712
804,-0.335655,-0.553034,0.691455
805,-0.176678,-0.463914,1.150558
806,-0.185044,-0.006084,0.914843
807,-0.19321,0.28206,0.570887
808,0.023332,0.435887,0.507653
809,0.424444,0.413389,0.217525
810,0.168244,0.187329,-0.020237
811,-0.015651,-0.046928,0.261684
812,-0.122535,-0.337307,0.359004
813,-0.140133,-0.440634,0.433444
814,0.023801,-0.085343,0.188725
815,0.061936,0.042253,-0.052274
816,0.076621,0.0507,-0.025204
817,0.218825,-0.061408,-0.084435
818,0.257472,-0.262519,-0.06723
819,0.163637,-0.280667,0.112583
820,0.18059,-0.023505,0.087739
821,0.25018,0.116707,-0.124364
822,0.24832,0.032935,-0.204806
823,0.220788,0.191067,-0.060445
824,0.194243,0.232318,0.02653
825,0.3724,0.340417,0.009819
826,0.461619,0.368997,-0.069069
827,0.319234,0.319889,-0.257342
828,0.242323,0.508895,-0.535578
829,0.391744,0.53722,-0.58132
830,0.639867,0.638961,-0.508101
831,0.359481,0.732844,-0.082398
832,-0.304941,0.388991,0.250616
833,-0.677062,0.357236,0.969281
834,-0.909842,0.535265,0.975802
835,-0.637882,0.307338,0.288118
836,-0.01826,0.222324,0.227872
837,0.108391,0.210217,0.331719
838,0.541971,0.158715,0.486189
839,0.395925,-0.063033,0.714065
840,0.198352,-0.064864,0.611527
841,-0.012924,-0.093343,0.566814
842,-0.089169,-0.397595,0.726549
843,-0.073862,-0.446409,0.736743
844,-0.086817,-0.494455,0.778187
845,-0.229563,-0.63096,0.776268
846,-0.227167,-0.652286,0.746272
847,-0.227076,-0.67873,0.708064
848,-0.389516,-0.523121,0.593612
849,-0.420112,-0.432151,0.424232
850,-0.409811,-0.302638,0.299047
851,-0.25497,2.301084,-2.01479
852,0.670301,2.832968,-1.993504
853,1.426087,2.203272,-0.914459
854,-0.10881,-0.303185,0.061791
855,-0.634111,-0.18956,0.423468
856,-0.797305,-0.081415,0.552823
857,-0.130823,0.242003,0.544785
858,0.335057,0.321613,0.667554
859,-0.28639,-0.158125,0.352736
860,-0.467225,-0.491361,0.848462
861,-0.461613,-0.343041,0.870904
862,-0.329672,-0.085988,0.899921
863,-0.279392,0.196455,0.71946
864,-0.002774,0.346768,0.634736
865,0.49899,0.50639,0.194577
866,0.367426,0.248598,0.055927
867,0.247181,-0.00163,0.1402
868,-0.022637,-0.350322,0.309882
869,-0.128563,-0.274809,0.417643
870,-0.060445,-0.157471,0.607289
871,0.04294,-0.081937,0.177826
872,0.046718,-0.031766,-0.235483
873,-0.003067,-0.022885,-0.284772
874,0.130665,-0.061992,0.035819
875,0.332744,-0.209237,0.191519
876,0.338539,-0.195399,0.12483
877,0.302036,0.093367,-0.047267
878,0.317255,0.114235,-0.122965
879,0.232179,0.070601,-0.138083
880,0.119592,0.169179,-0.085074
881,0.189963,0.174073,0.034496
882,0.402281,0.231923,0.137421
883,0.802485,0.34745,0.162778
884,0.555355,0.330792,-0.156434
885,0.282267,0.647591,-0.394618
886,0.28758,0.638427,-0.31615
887,0.418668,0.715776,-0.10177
888,0.072729,0.544615,0.057239
889,-0.378545,0.200192,0.121108
890,-0.887727,0.533681,0.811115
891,-0.94976,0.396709,0.668686
892,-0.896017,0.218158,0.483995
893,0.090038,0.112421,0.287604
894,0.196892,0.17906,0.371772
895,0.274386,0.12519,0.455163
896,0.512935,0.003952,0.747897
897,0.427677,-0.054345,0.718494
898,0.315433,-0.081678,0.627028
899,0.049892,-0.438074,0.656528
900,0.026936,-0.503164,0.679011
901,-0.085503,-0.558142,0.761076
902,-0.137611,-0.529343,0.778937
903,-0.188555,-0.553496,0.779423
904,-0.258268,-0.591328,0.68766
905,-0.257327,-0.542065,0.519464
906,-0.251795,-0.46377,0.380085
907,-0.27377,0.349559,-0.385257
908,-0.248063,2.204792,-1.762783
909,0.09102,2.768907,-1.826248
910,0.607677,0.2604,-0.642677
911,-0.266558,-0.166925,0.202302
912,-0.495412,0.050524,0.613338
913,0.176938,0.644305,0.56715
914,0.36223,0.222338,0.340816
915,0.181462,-0.305081,0.542862
916,-0.716513,-0.86801,0.775277
917,-0.535207,-0.478128,0.831166
918,-0.454467,-0.223813,1.017159
919,-0.344293,0.36797,0.647348
920,0.022742,0.575339,0.541757
921,0.285878,0.63132,0.476772
922,0.745492,0.235823,0.083121
923,0.129264,-0.102674,0.214575
924,-0.068239,-0.29659,0.318747
925,-0.121957,-0.27773,0.376243
926,-0.038815,-0.285107,0.383737
927,0.071423,-0.104153,0.028021
928,0.093292,0.007714,-0.038013
929,0.089614,-0.019309,0.118339
930,0.105333,-0.101305,0.104006
931,0.133828,-0.202455,0.005144
932,0.170831,-0.1247,-0.043547
933,0.261897,-0.066962,-0.020533
934,0.252241,0.083459,-0.059458
935,0.254953,0.154947,-0.20841
936,0.292804,0.217152,-0.255908
937,0.432741,0.28017,-0.039263
938,0.664698,0.384174,0.053304
939,0.67985,0.260833,-0.169338
940,0.434721,0.462189,-0.509706
941,0.382994,0.548337,-0.508516
942,0.441456,0.734686,-0.346988
943,0.404278,0.881608,-0.180917
944,-0.721276,0.686042,0.744271
945,-0.988682,0.864516,1.171909
946,-1.160553,0.780904,1.181395
947,-0.068742,0.279567,0.261915
948,-0.019593,0.284103,0.290531
949,-0.018931,0.289648,0.30605
950,0.305794,0.010813,0.542456
951,0.400004,0.061782,0.714836
952,0.387842,0.003453,0.841953
953,-0.03824,-0.482509,0.76678
954,-0.033617,-0.614522,0.756471
955,-0.02121,-0.683914,0.785784
956,-0.053332,-0.646133,0.792127
957,-0.053554,-0.639705,0.7829
958,-0.161344,-0.59513,0.792243
959,-0.221459,-0.537442,0.743645
960,-0.213476,-0.450867,0.535306
961,-0.203163,-0.137177,0.309551
962,-0.315677,0.832257,-0.814062
963,-0.171057,2.717277,-1.663553
964,1.112938,1.958491,-0.874013
965,0.521163,-0.069053,-0.390632
966,-0.275404,-0.480528,-0.197307
967,-0.656313,-0.334201,0.421989
968,-0.30974,-0.264273,0.829261
969,-0.040963,0.062211,0.973636
970,0.028895,0.846672,-0.101227
971,-0.226403,0.054333,0.337331
972,-0.43314,-0.588406,1.016247
973,-0.292233,-0.572819,0.795569
974,-0.136579,-0.225856,1.013509
975,-0.129252,0.197328,0.847992
976,-0.002034,0.469006,0.736757
977,0.459791,0.586647,0.353487
978,0.739499,0.436919,0.041104
979,0.001045,0.021162,0.185065
980,-0.195487,-0.312365,0.269518
981,-0.20738,-0.319888,0.344328
982,-0.17793,-0.311508,0.384265
983,0.071709,-0.097705,0.13137
984,0.088192,0.003962,0.181989
985,0.124149,0.047792,0.151189
986,0.090636,-0.172229,-0.096061
987,0.133962,-0.223831,-0.01087
988,0.199064,-0.216414,0.06227
989,0.405968,0.024521,-0.00434
990,0.405068,-0.028321,-0.197788
991,0.309585,0.028068,-0.302631
992,0.246317,0.206627,0.057877
993,0.383256,0.258277,0.137588
994,0.599219,0.380288,0.157671
995,0.571485,0.329931,-0.374013
996,0.393161,0.453269,-0.494967
997,0.289398,0.491515,-0.564117
998,0.398823,0.787608,-0.438944
999,0.416849,0.794569,-0.191202
1000,-0.55959,0.631625,0.520426
1001,-1.151846,0.803662,1.190083
1002,-1.254814,0.605683,1.049674
1003,-0.122218,0.228135,0.250358
1004,-0.017075,0.246822,0.307232
1005,0.044864,0.247291,0.354872
1006,0.144089,-0.028278,0.530313
1007,0.352652,-0.113228,0.788342
1008,0.295377,-0.126763,0.806003
1009,0.093756,-0.395061,0.681642
1010,0.052442,-0.559733,0.735576
1011,-0.011253,-0.58982,0.740593
1012,-0.066909,-0.575764,0.827797
1013,-0.106085,-0.56817,0.832581
1014,-0.188259,-0.638732,0.770959
1015,-0.257617,-0.638159,0.682394
1016,-0.22554,-0.530311,0.515368
1017,-0.210317,-0.200428,0.296762
1018,-0.33803,0.806307,-0.580042
1019,0.371119,2.905547,-1.997287
1020,1.087703,1.98561,-1.233914
1021,1.034212,0.809004,-0.66729
1022,-0.227554,-0.56729,-0.045405
1023,-0.537436,-0.433636,0.389548
1024,-0.226558,0.065107,1.208481
1025,-0.006392,0.586792,-0.063937
1026,-0.09249,0.550727,-0.284986
1027,-0.334665,-0.07738,0.365905
1028,-0.281781,-0.361629,0.935395
1029,-0.111788,-0.241615,1.027891
1030,-0.041717,-0.065801,1.066699
1031,0.066758,0.449757,0.762614
1032,0.29816,0.515919,0.543296
1033,0.568342,0.488723,0.231685
1034,-3.10E-05,0.024996,0.263708
1035,-0.044394,-0.111985,0.272722
1036,-0.130064,-0.344413,0.336017
1037,-0.136227,-0.366061,0.436587
1038,-0.040844,-0.307872,0.351642
1039,-0.06595,-0.191229,0.140052
1040,-0.089688,-0.008277,0.084583
1041,-0.031003,-0.051051,-0.178272
1042,0.29021,-0.181036,-0.027016
1043,0.507138,-0.007405,0.175162
1044,0.548747,0.077778,0.194795
1045,0.407588,0.030866,-0.200031
1046,0.086727,0.170753,-0.288577
1047,0.050033,0.213981,-0.151935
1048,0.51207,0.398791,0.237966
1049,0.608399,0.259003,0.101919
1050,0.526918,0.198439,-0.151443
1051,0.211561,0.4634,-0.54891
1052,0.26545,0.464265,-0.562166
1053,0.528668,0.783712,-0.368154
1054,0.332474,0.611709,0.058772
1055,-0.450961,0.58637,0.624537
1056,-1.203919,0.93487,1.149873
1057,-1.187962,0.39955,0.594019
1058,0.003305,0.284467,0.321136
1059,0.097812,0.228575,0.381006
1060,0.241541,0.15019,0.34771
1061,0.246485,-0.019819,0.521369
1062,0.320869,0.004017,0.702436
1063,0.088106,-0.185596,0.799313
1064,-0.053433,-0.35633,0.779471
1065,-0.068414,-0.564241,0.775356
1066,-0.05447,-0.596505,0.750024
1067,-0.032578,-0.548993,0.792857
1068,-0.046933,-0.532767,0.796994
1069,-0.167507,-0.573256,0.773846
1070,-0.333953,-0.594487,0.739821
1071,-0.340431,-0.541716,0.677346
1072,-0.33043,-0.477393,0.555448
1073,-0.379888,0.194974,0.096065
1074,-0.433534,0.757964,-0.845384
1075,0.405505,3.136215,-2.023875
1076,1.069282,0.95849,-0.466727
1077,0.579257,-0.078619,-0.333261
1078,-0.527188,-0.169265,0.225577
1079,-0.480688,-0.13118,0.814466
1080,0.200319,0.138149,0.962651
1081,0.06146,0.351182,0.402871
1082,-0.418785,0.10105,0.373364
1083,-0.481375,-0.469402,1.074994
1084,-0.26603,-0.361824,0.829647
1085,-0.183674,-0.072507,1.0141
1086,-0.206034,0.214648,0.853494
1087,0.032349,0.38577,0.680077
1088,0.416688,0.390706,0.298798
1089,0.235321,0.164793,0.034429
1090,-0.004739,-0.092688,0.319221
1091,-0.079958,-0.27831,0.428986
1092,-0.095856,-0.261308,0.343704
1093,0.054634,-0.175418,0.30408
1094,0.138086,-0.071584,0.094615
1095,0.149952,0.004932,0.155195
1096,0.159422,-0.031705,-0.08481
1097,0.068824,-0.108568,-0.143337
1098,0.069147,-0.151467,-0.048818
1099,0.356531,-0.045884,0.170338
1100,0.451954,0.047902,0.052184
1101,0.480351,0.015679,-0.118154
1102,0.064831,0.174696,-0.192653
1103,0.079698,0.195983,0.092065
1104,0.21184,0.189002,0.227677
1105,0.66606,0.356526,0.194681
1106,0.57185,0.194803,-0.265508
1107,0.444326,0.300417,-0.516325
1108,0.232116,0.445241,-0.603949
1109,0.438085,0.448956,-0.583755
1110,0.465826,0.71743,-0.271292
1111,0.099216,0.440094,0.335546
1112,-0.255928,0.384328,0.676535
1113,-0.821056,0.75429,1.080816
1114,-1.117601,0.257124,0.423116
1115,-0.167383,0.278771,0.283578
1116,-0.180179,0.295472,0.329767
1117,0.202659,0.169922,0.442318
1118,0.412965,0.006603,0.827984
1119,0.417555,0.024086,0.858735
1120,0.134192,-0.222058,0.647044
1121,0.04759,-0.496914,0.750674
1122,0.028683,-0.544761,0.771765
1123,-0.001495,-0.568704,0.819691
1124,-0.120954,-0.516715,0.891
1125,-0.167853,-0.563375,0.889258
1126,-0.303335,-0.686033,0.799353
1127,-0.321899,-0.700679,0.705625
1128,-0.316123,-0.725748,0.664523
1129,-0.461486,0.094365,0.010799
1130,-0.089292,3.410897,-2.243845
1131,0.735168,3.455297,-1.706492
1132,0.708856,0.273201,-0.346932
1133,-0.377607,-0.545878,0.192614
1134,-0.716671,-0.332811,0.525376
1135,-0.778707,-0.304803,0.671106
1136,0.057744,0.064275,0.796629
1137,0.21625,0.570391,0.26992
1138,-0.278812,0.051605,0.733237
1139,-0.128026,-0.237213,0.882886
1140,-0.125562,-0.14816,0.992323
1141,-0.130872,0.13174,0.867061
1142,0.018349,0.167346,0.666324
1143,0.108867,0.208136,0.578959
1144,0.055455,0.152893,0.159596
1145,-0.073392,0.070154,0.189002
1146,-0.056259,0.008172,0.248937
1147,-0.034916,-0.203731,0.287406
1148,-0.035786,-0.361905,0.405344
1149,0.04331,-0.331292,0.252151
1150,0.179884,-0.120214,0.242164
1151,0.152194,-0.004082,0.178555
1152,0.075084,-0.025306,-0.180752
1153,0.051872,-0.120079,-0.208992
1154,0.206446,-0.138715,0.026708
1155,0.410406,0.026545,0.184038
1156,0.539188,0.04303,0.066523
1157,0.408166,0.019544,-0.223854
1158,0.034369,0.243914,-0.205183
1159,-0.016522,0.300946,-0.121428
1160,0.628769,0.364293,0.161723
1161,0.667616,0.243569,0.051375
1162,0.62977,0.198296,-0.180274
1163,0.455169,0.464659,-0.470457
1164,0.511793,0.540471,-0.345228
1165,0.537679,0.735092,-0.180757
1166,-0.513622,0.412018,0.425901
1167,-0.523115,0.422536,0.502989
1168,-1.120481,0.745763,1.120924
1169,-0.493576,0.222617,0.338393
1170,-0.194899,0.304208,0.28824
1171,-0.029643,0.342668,0.300593
1172,0.323267,0.112297,0.417764
1173,0.327233,0.029369,0.571161
1174,0.384764,0.008144,0.880522
1175,0.046882,-0.33138,0.759109
1176,-0.005926,-0.41875,0.78054
1177,-0.004664,-0.526806,0.758242
1178,-0.053413,-0.589943,0.816119
1179,-0.117857,-0.560021,0.825086
1180,-0.129678,-0.554041,0.827574
1181,-0.222798,-0.583151,0.802161
1182,-0.263811,-0.58899,0.756898
1183,-0.26458,-0.397603,0.474187
1184,-0.288459,0.131631,0.054415
1185,-0.316725,0.753574,-0.883415
1186,0.717774,3.102736,-1.639526
1187,0.845234,0.541695,-0.442108
1188,0.363832,-0.220703,-0.302672
1189,-0.705106,-0.52909,0.246808
1190,-0.646952,-0.31322,0.744483
1191,-0.400288,-0.265674,1.061034
1192,-0.100402,0.692863,0.583166
1193,0.171957,0.800281,-0.096718
1194,-0.239123,-0.227367,1.027286
1195,-0.208986,-0.56721,0.920937
1196,-0.185065,-0.334585,1.076866
1197,-0.148745,-0.100841,0.96729
1198,-0.105348,0.301343,0.72731
1199,0.265814,0.376472,0.458083
1200,0.402508,0.348996,0.252212
1201,0.124368,0.146678,0.192935
1202,0.065395,0.000263,0.302886
1203,-0.053952,-0.249574,0.261256
1204,-0.198707,-0.337289,0.375923
1205,-0.055907,-0.213591,0.371187
1206,0.050063,-0.107614,0.149139
1207,0.141189,-0.036824,0.010047
1208,0.084175,-0.126266,-0.130289
1209,0.14905,-0.164563,0.01375
1210,0.245246,-0.176839,0.113333
1211,0.418196,0.100117,0.073319
1212,0.429158,0.085147,-0.041249
1213,0.242269,0.074407,-0.241154
1214,0.042571,0.252345,-0.149488
1215,0.134281,0.240325,0.011058
1216,0.439077,0.380032,0.134021
1217,0.634046,0.411847,-0.008872
1218,0.40191,0.474647,-0.354973
1219,0.329625,0.621862,-0.494111
1220,0.452205,0.638442,-0.272557
1221,0.236343,0.826092,0.040608
1222,-0.258461,0.265778,0.15266
1223,-0.746302,0.512624,0.858645
1224,-1.002754,0.652187,0.976821
1225,-0.324037,0.18781,0.321763
1226,-0.060585,0.198571,0.306547
1227,0.058311,0.251612,0.349708
1228,0.318289,0.060945,0.57307
1229,0.409864,0.060684,0.848443
1230,0.328571,0.029747,0.863697
1231,-0.001566,-0.284119,0.711397
1232,-0.014591,-0.482151,0.757707
1233,-0.02279,-0.553937,0.806857
1234,-0.13871,-0.582317,0.815974
1235,-0.127229,-0.579931,0.851201
1236,-0.145642,-0.543451,0.847774
1237,-0.226567,-0.529342,0.821771
1238,-0.228666,-0.492534,0.666827
1239,-0.205854,-0.440742,0.513428
1240,-0.277474,0.520441,-0.380023
1241,-0.306855,2.548161,-1.709361
1242,1.080209,2.127653,-1.030971
1243,0.647573,0.061188,-0.440292
1244,-0.108282,-0.421539,-0.136768
1245,-0.45435,-0.265699,0.257702
1246,-0.450158,-0.10652,0.928561
1247,0.053064,0.290881,0.885705
1248,-0.097839,0.60728,0.600197
1249,-0.221143,0.099509,0.540542
1250,-0.262148,-0.539511,1.030827
1251,-0.225129,-0.481713,1.031028
1252,-0.048188,-0.137223,1.159732
1253,-0.018227,0.354151,0.675466
1254,-0.009379,0.337696,0.624417
1255,0.260676,0.23367,0.184497
1256,-0.042624,0.102557,0.184261
1257,-0.046569,-0.026183,0.248645
1258,-0.140782,-0.383321,0.451011
1259,-0.113854,-0.417717,0.441463
1260,-0.111433,-0.393026,0.334413
1261,0.001309,-0.140598,0.258407
1262,0.049928,0.055044,0.176181
1263,0.076418,0.02803,0.051576
1264,0.081767,-0.14415,-0.059763
1265,0.279813,-0.129203,0.065273
1266,0.387715,-0.073575,0.147587
1267,0.437486,0.056979,0.063207
1268,0.143229,0.130017,-0.263586
1269,0.026709,0.254187,-0.07768
1270,0.238081,0.249007,0.161983
1271,0.595732,0.403559,0.237543
1272,0.63394,0.262979,-0.048779
1273,0.404982,0.472216,-0.369353
1274,0.27512,0.504465,-0.419398
1275,0.351002,0.583923,-0.415096
1276,0.194959,0.729198,-0.144407
1277,-0.207236,0.298939,0.175038
1278,-0.477805,0.274443,0.441966
1279,-1.066572,0.707596,0.891977
1280,-0.923764,0.204972,0.46539
1281,-0.381061,0.192995,0.36043
1282,-0.047533,0.243215,0.355086
1283,0.027911,0.197216,0.411088
1284,0.167757,0.120453,0.594071
1285,0.367702,-0.01843,0.775039
1286,0.246652,-0.072838,0.66922
1287,0.09526,-0.225151,0.670104
1288,0.02537,-0.506948,0.731359
1289,-0.053332,-0.543422,0.802692
1290,-0.095329,-0.540953,0.845274
1291,-0.145765,-0.589238,0.878022
1292,-0.247122,-0.657406,0.781136
1293,-0.235356,-0.673095,0.757066
1294,-0.260012,-0.288245,0.428141
1295,-0.359469,0.549419,-0.290064
1296,-0.353601,0.522755,-0.346024
1297,1.019087,2.148786,-1.482268
1298,0.69879,0.022967,-0.508792
1299,0.686555,0.038094,-0.475865
1300,-0.649137,-0.068997,0.592343
1301,-0.401006,0.3154,0.935878
1302,-0.408871,0.308701,0.924224
1303,0.24249,0.374105,0.131719
1304,-0.483338,-0.648415,1.158907
1305,-0.590044,-0.491877,1.078144
1306,-0.482214,-0.177181,0.947345
1307,-0.35451,0.144412,0.955751
1308,-0.345866,0.257765,0.777158
1309,0.061237,0.360736,0.540223
1310,0.357312,0.241152,0.324368
1311,0.137624,0.149206,0.206459
1312,0.040469,0.024362,0.377443
1313,-0.009138,-0.248366,0.30591
1314,-0.040288,-0.268158,0.276321
1315,-0.021888,-0.139492,0.324729
1316,0.035443,-0.146695,0.095589
1317,-0.019318,-0.048536,0.009788
1318,-0.059835,-0.088248,0.082963
1319,0.041857,-0.261712,0.108512
1320,0.123379,-0.264832,0.105517
1321,0.3822,0.066105,0.078971
1322,0.396212,0.115242,-0.042838
1323,0.30728,0.084804,-0.146131
1324,0.086974,0.233059,-0.126385
1325,0.251633,0.319478,0.050063
1326,0.565012,0.409917,0.096078
1327,0.504634,0.21092,-0.107739
1328,0.246639,0.437963,-0.490264
1329,0.179885,0.557797,-0.536253
1330,0.45862,0.649239,-0.441385
1331,0.36353,0.715409,-0.110895
1332,0.12709,0.509984,0.159168
1333,-0.753021,0.624725,1.017679
1334,-1.150005,0.734574,1.066927
1335,-1.223926,0.48087,0.714818
1336,-0.077893,0.263931,0.294208
1337,0.008991,0.251163,0.359923
1338,0.126591,0.233002,0.43921
1339,0.383866,0.071923,0.688363
1340,0.404508,0.101858,0.826863
1341,0.121606,-0.113409,0.754369
1342,-0.090504,-0.461643,0.783899
1343,-0.120475,-0.528062,0.835466
1344,-0.153204,-0.578142,0.877833
1345,-0.209507,-0.548525,0.890132
1346,-0.188304,-0.57392,0.863552
1347,-0.189441,-0.592314,0.82173
1348,-0.276971,-0.541526,0.753587
1349,-0.323931,-0.384366,0.534359
1350,-0.342883,-0.218419,0.425096
1351,-0.408619,1.241985,-1.137465
1352,1.008727,2.378767,-1.308203
1353,0.990252,2.397679,-1.265265
1354,0.282106,-0.255659,-0.296949
1355,-0.487284,-0.475321,0.62296
1356,-0.499581,-0.480407,0.615846
1357,-0.253216,0.290455,0.921519
1358,-0.467158,1.11426,0.012631
1359,-0.483535,1.117168,0.020087
1360,-0.02729,-0.510948,1.275308
1361,-0.12981,-0.523757,0.998568
1362,-0.17894,-0.526968,0.917775
1363,-0.241065,0.047125,0.902272
1364,-0.100973,0.364869,0.743279
1365,0.061977,0.508444,0.56302
1366,0.473355,0.525346,0.094787
1367,0.054025,0.141521,0.071334
1368,-0.144809,-0.139425,0.321855
1369,-0.232244,-0.351098,0.365829
1370,-0.047043,-0.27004,0.566087
1371,0.06806,-0.220559,0.353102
1372,0.132666,-0.092161,0.145209
1373,0.07824,0.027652,0.024472
1374,0.032531,-0.060308,-0.067474
1375,0.06381,-0.220967,0.021021
1376,0.18934,-0.133812,0.264622
1377,0.257804,-0.009141,0.261228
1378,0.264028,0.122384,-0.130903
1379,0.139512,0.191625,-0.364177
1380,0.128692,0.258242,-0.240998
1381,0.258158,0.256398,0.067018
1382,0.625004,0.394251,0.237063
1383,0.692158,0.223836,0.069819
1384,0.399735,0.510696,-0.367907
1385,0.334248,0.511434,-0.468606
1386,0.355696,0.457723,-0.398218
1387,0.188945,0.679014,-0.219241
1388,-0.248596,0.384753,0.256047
1389,-0.529549,0.514395,0.814819
1390,-0.798213,0.5193,1.178844
1391,-0.542901,0.319697,0.391849
1392,-0.143977,0.293841,0.330978
1393,0.097127,0.284599,0.40838
1394,0.277208,0.165371,0.517756
1395,0.212695,0.10057,0.59715
1396,0.091981,-0.071483,0.768256
1397,-0.06183,-0.301411,0.716191
1398,-0.066909,-0.288152,0.736177
1399,-0.029469,-0.497908,0.774023
1400,-0.218945,-0.517095,0.845762
1401,-0.20702,-0.514801,0.848117
1402,-0.301768,-0.443436,0.797982
1403,-0.293797,-0.482844,0.740084
1404,-0.283704,-0.499657,0.714093
1405,-0.456288,-0.17606,0.469843
1406,-0.520717,0.348126,-0.083961
1407,-0.527129,0.91086,-0.793404
1408,0.98713,1.998092,-1.352733
1409,1.16937,0.495723,-0.467675
1410,0.757028,0.048906,0.018179
1411,-0.166656,-0.584571,0.666457
1412,-0.427529,-0.577946,0.549651
1413,-0.462337,-0.081512,0.520634
1414,-0.352986,0.906988,0.524457
1415,0.071569,0.735606,0.36996
1416,-0.115466,0.216098,0.683678
1417,-0.208313,-0.561864,0.963156
1418,-0.392384,-0.45537,1.016925
1419,-0.380558,-0.318998,0.923688
1420,-0.316179,0.111239,0.752107
1421,-0.102391,0.352986,0.755578
1422,0.093397,0.515791,0.597109
1423,0.548329,0.057356,0.15234
1424,0.25642,-0.158613,0.310425
1425,0.03052,-0.357128,0.449192
1426,-0.191327,-0.312371,0.638131
1427,-0.117638,-0.229219,0.287726
1428,-0.173849,-0.021364,0.070019
1429,-0.027059,0.071521,0.023598
1430,0.062048,0.056911,-0.058423
1431,0.253263,-0.216961,0.096244
1432,0.23006,-0.284858,0.160862
1433,0.309299,0.026908,0.148381
1434,0.38534,0.122064,0.065227
1435,0.361251,0.062874,-0.122592
1436,0.127432,0.270638,-0.119149
1437,0.070462,0.288318,-0.057917
1438,0.316752,0.342635,0.075379
1439,0.53186,0.365193,0.077662
1440,0.507396,0.28215,-0.047342
1441,0.349877,0.517289,-0.44679
1442,0.483749,0.388193,-0.435328
1443,0.482491,0.560795,-0.166209
1444,0.178247,0.553586,0.098155
1445,-0.580579,0.547114,1.026121
1446,-0.580739,0.563268,1.088644
1447,-0.974662,0.579743,0.815334
1448,-0.157146,0.292256,0.28681
1449,-0.085472,0.322825,0.326144
1450,0.117132,0.290133,0.446171
1451,0.431833,0.045977,0.775535
1452,0.637929,0.058004,0.899264
1453,0.054328,-0.213245,0.732385
1454,-0.112489,-0.428833,0.744752
1455,-0.09887,-0.476958,0.774771
1456,-0.111039,-0.576663,0.884009
1457,-0.281816,-0.596427,0.894966
1458,-0.263009,-0.584372,0.862079
1459,-0.248969,-0.594382,0.806437
1460,-0.296795,-0.532666,0.767782
1461,-0.278204,-0.467459,0.641362
1462,-0.339623,0.198952,0.226354
1463,-0.365141,1.564474,-1.264173
1464,0.483973,2.812725,-1.849417
1465,1.353923,0.987226,-0.501655
1466,0.372308,-0.410043,-0.187421
1467,-0.527333,-0.289238,0.586147
1468,-0.690657,-0.25184,0.693202
1469,-0.091982,0.087754,0.862176
1470,0.034531,0.584094,0.162103
1471,-0.066742,0.314086,0.600867
1472,-0.336336,-0.357038,0.899601
1473,-0.278687,-0.398901,0.961298
1474,-0.116064,-0.155836,1.159334
1475,-0.056424,0.195163,1.015166
1476,0.05676,0.454766,0.842398
1477,0.417839,0.606163,0.410383
1478,0.298284,0.285247,0.022865
1479,0.031927,0.00865,0.309638
1480,-0.138797,-0.28484,0.490579
1481,-0.273864,-0.382655,0.376842
1482,-0.277379,-0.247956,0.241517
1483,-0.025924,-0.178978,0.281099
1484,0.113864,0.086414,0.236147
1485,0.111716,0.084036,0.207716
1486,0.196367,-0.062375,0.006248
1487,0.454662,-0.13742,0.125131
1488,0.46766,-0.13603,0.10009
1489,0.393837,0.111949,-0.042592
1490,0.183922,0.069278,-0.285244
1491,0.194414,0.071895,-0.301296
1492,0.309455,0.230174,0.0695
1493,0.618558,0.381699,0.164236
1494,0.622783,0.381862,0.1739
1495,0.396901,0.242981,-0.431545
1496,0.204806,0.458906,-0.418973
1497,0.313265,0.410683,-0.398682
1498,0.460809,0.552873,-0.130722
1499,-0.037517,0.650661,0.2151
1500,-0.448261,0.720599,0.478957
1501,-0.909802,0.79802,1.247834
1502,-0.651098,0.40884,0.618823
1503,-0.221882,0.39062,0.5349
1504,-0.027783,0.334825,0.431928
1505,0.269798,0.181177,0.322056
1506,0.396032,0.126372,0.431969
1507,0.267099,-0.066497,0.903839
1508,0.111904,-0.15415,0.820836
1509,-0.004753,-0.232807,0.765262
1510,-0.053082,-0.473226,0.830164
1511,-0.054076,-0.534958,0.881676
1512,-0.130305,-0.57046,0.846402
1513,-0.131363,-0.551911,0.829571
1514,-0.161018,-0.510221,0.855327
1515,-0.299132,-0.537468,0.867983
1516,-0.382575,-0.426518,0.698053
1517,-0.326703,-0.175034,0.488235
1518,-0.302352,0.011528,0.349656
1519,0.10095,2.44241,-1.462264
1520,0.803108,2.384294,-1.457673
1521,1.250069,1.553345,-0.907762
1522,0.301611,-0.267884,-0.278813
1523,-0.619697,0.071569,0.268119
1524,-0.709499,0.052323,0.557134
1525,0.213464,0.320619,1.067058
1526,0.186565,0.511377,0.454978
1527,0.147051,0.474951,0.141701
1528,-0.534258,-0.61602,1.09444
1529,-0.342786,-0.280988,1.168404
1530,-0.332401,-0.292203,1.143399
1531,-0.288859,0.513643,0.63579
1532,0.084181,0.59301,0.418616
1533,0.100651,0.579379,0.372052
1534,0.172692,0.152923,0.2308
1535,0.09661,-0.106878,0.427996
1536,0.10924,-0.110594,0.405079
1537,-0.006869,-0.370607,0.492106
1538,0.062847,-0.191705,0.393265
1539,0.050703,-0.127111,0.176864
1540,-0.027692,-0.030965,-0.097223
1541,-0.075268,-0.038227,-0.148584
1542,0.009232,-0.062668,-0.046759
1543,0.207992,-0.188,0.204925
1544,0.384781,-0.030795,0.30162
1545,0.442891,0.062501,0.241007
1546,0.528006,0.057435,-0.113853
1547,0.087157,0.217734,-0.110524
1548,0.108425,0.202479,0.012696
1549,0.608317,0.424885,0.269498
1550,0.653112,0.197369,0.013711
1551,0.572751,0.199002,-0.224992
1552,0.365007,0.46549,-0.467756
1553,0.543663,0.503424,-0.381494
1554,0.447795,0.675712,-0.143261
1555,-0.024641,0.39398,0.213855
1556,-0.395209,0.429399,0.414211
1557,-1.231504,0.942899,1.005
1558,-1.184947,0.27203,0.6006
1559,-0.244483,0.317301,0.29094
1560,-0.147543,0.401985,0.280035
1561,0.395629,0.145373,0.554229
1562,0.386322,0.023338,0.731144
1563,0.498807,0.01704,0.917096
1564,0.154117,-0.200361,0.760708
1565,-0.019055,-0.328107,0.75089
1566,-0.022402,-0.421753,0.779975
1567,-0.040134,-0.569511,0.859852
1568,-0.068109,-0.546655,0.928
1569,-0.067724,-0.533194,0.926239
1570,-0.158743,-0.614402,0.865985
1571,-0.217384,-0.596978,0.763596
1572,-0.210206,-0.625459,0.722319
1573,-0.273188,-0.090274,0.393809
1574,-0.35908,1.095587,-0.904735
1575,-0.238929,3.031804,-1.886942
1576,1.250503,1.385546,-0.858287
1577,0.499898,-0.247271,-0.281908
1578,-0.346418,-0.082168,0.381828
1579,-0.791636,0.189706,0.719248
1580,-0.065964,0.433904,0.941125
1581,0.262285,0.57237,0.007929
1582,-0.124368,-0.42123,1.106152
1583,-0.95481,-0.388864,0.758697
1584,-0.553723,-0.368021,1.017084
1585,-0.342779,-0.02684,1.261065
1586,-0.206104,0.348814,0.842086
1587,-0.088804,0.454601,0.800557
1588,0.330045,0.532689,0.51674
1589,0.367346,0.140174,0.100924
1590,0.133367,0.046668,0.236955
1591,-0.063958,-0.242448,0.3754
1592,-0.097191,-0.284021,0.497276
1593,-0.064139,-0.254589,0.57797
1594,0.107494,-0.149464,0.013983
1595,0.122966,-0.089151,-0.004209
1596,0.105665,0.004838,-0.05108
1597,0.029147,-0.127824,0.034218
1598,0.091792,-0.177525,0.088436
1599,0.287025,-0.080929,0.144103
1600,0.324915,0.058349,0.014026
1601,0.147412,0.07809,-0.121183
1602,0.138247,0.17777,-0.027276
1603,0.237563,0.19566,0.101088
1604,0.472532,0.3227,0.112743
1605,0.586948,0.34357,-0.021089
1606,0.415393,0.399394,-0.296538
1607,0.256638,0.591712,-0.435224
1608,0.342597,0.561692,-0.495941
1609,0.497095,0.779629,0.020852
1610,-0.132826,0.440227,0.34848
1611,-0.482707,0.212531,0.685404
1612,-1.009061,0.790502,0.884725
1613,-0.826662,0.558387,0.467573
1614,-0.411053,0.462014,0.362051
1615,-0.10643,0.425899,0.414402
1616,0.255005,0.191535,0.499779
1617,0.259281,0.218045,0.545504
1618,0.25433,0.090341,0.886962
1619,-0.017453,-0.125722,0.728339
1620,-0.028599,-0.107293,0.753028
1621,-0.096555,-0.465698,0.882586
1622,-0.191415,-0.598304,0.932273
1623,-0.205031,-0.582496,0.936081
1624,-0.19595,-0.589757,0.905907
1625,-0.196585,-0.583461,0.927886
1626,-0.219506,-0.601481,0.912837
1627,-0.396666,-0.555715,0.817913
1628,-0.358106,5.00E-05,0.330692
1629,-0.32108,0.361665,-0.055834
1630,-0.227844,1.914025,-1.35907
1631,1.148801,1.171036,-0.437445
1632,0.667719,0.358656,-0.302497
1633,-0.403085,0.487961,-0.084054
1634,-1.086023,0.745893,0.524387
1635,-0.62625,0.50873,0.163455
1636,0.269315,0.19854,0.098904
1637,0.320333,-0.823294,1.633898
1638,-0.091051,-0.963864,1.291739
1639,-0.268484,-0.473122,0.602196
1640,-0.244904,0.313679,1.116276
1641,-0.229204,0.707875,0.77849
1642,0.320291,0.533513,0.344244
1643,0.456771,0.352131,0.337209
1644,0.040785,0.002831,0.331801
1645,-0.143475,-0.032101,0.391481
1646,-0.126294,-0.133088,0.389897
1647,-0.117345,-0.2173,0.410741
1648,0.093992,-0.09903,0.557641
1649,0.220964,-0.069111,0.184226
1650,0.172439,-0.055743,0.050317
1651,-0.038035,-0.035924,0.140094
1652,-0.134633,-0.052089,0.15967
1653,-0.197468,-0.220874,0.070225
1654,-0.134326,-0.181229,0.061059
1655,0.159722,-0.044209,0.130813
1656,0.432485,0.011311,0.141672
1657,0.4951,-0.055493,0.060149
1658,0.256574,0.176481,-0.073583
1659,0.143133,0.21791,-0.048889
1660,0.506364,0.361838,0.210574
1661,0.560861,0.323509,0.166625
1662,0.532291,0.231488,0.017501
1663,0.408592,0.518357,-0.373745
1664,0.502918,0.463777,-0.461316
1665,0.557779,0.591134,-0.341157
1666,0.057903,0.73692,0.251825
1667,-0.585636,0.419361,0.816331
1668,-0.792194,0.521781,1.099479
1669,-1.021024,0.525529,0.664645
1670,-0.320308,0.314641,0.306066
1671,-0.336551,0.33455,0.353345
1672,0.141817,0.20764,0.519636
1673,0.173526,0.072308,0.824833
1674,0.18573,0.094613,0.858853
1675,0.10428,-0.19789,0.706199
1676,0.032964,-0.35142,0.723994
1677,0.041502,-0.403788,0.773051
1678,-0.022279,-0.472359,0.847569
1679,-0.148022,-0.48638,0.903111
1680,-0.165599,-0.484141,0.921176
1681,-0.237509,-0.564547,0.896833
1682,-0.306845,-0.61222,0.789821
1683,-0.275954,-0.606956,0.702445
1684,-0.197354,-0.410923,0.393025
1685,-0.224836,1.167111,-1.42819
1686,-0.124421,2.287879,-1.760588
1687,1.420905,2.661276,-0.916088
1688,0.077251,-0.282628,-0.26393
1689,-0.428216,-0.129203,0.170628
1690,-0.574935,0.091636,0.461062
1691,-0.178588,0.092873,0.463089
1692,0.091245,0.048044,0.567444
1693,-0.258324,-0.251084,1.262768
1694,-0.297793,-0.157152,1.112518
1695,-0.121956,0.116522,1.244436
1696,-0.019651,0.510815,0.971821
1697,0.193155,0.39687,0.686639
1698,0.342823,0.355195,0.582779
1699,0.192198,0.115273,0.357721
1700,-0.052328,0.075882,0.365832
1701,-0.218228,-0.061141,0.329104
1702,-0.258253,-0.221352,0.154465
1703,-0.202139,-0.326649,0.299316
1704,0.058269,-0.226468,0.375712
1705,0.135551,-0.106786,0.25222
1706,0.103566,-0.109989,0.216961
1707,0.027467,-0.049049,0.127081
1708,0.053961,-0.153441,0.102487
1709,0.193173,-0.166542,0.086086
1710,0.416601,-0.009759,0.211803
1711,0.507959,0.042121,-0.02397
1712,0.160948,0.164457,-0.158798
1713,0.032389,0.260812,-0.144424
1714,0.07823,0.3481,-0.008107
1715,0.673069,0.440528,0.232505
1716,0.703518,0.283717,0.154461
1717,0.335753,0.474555,-0.410981
1718,0.44983,0.482047,-0.421634
1719,0.561221,0.534729,-0.267366
1720,0.301012,0.72479,0.137736
1721,-0.331591,0.33778,0.508323
1722,-0.618101,0.57789,0.907081
1723,-1.03961,0.880436,1.033146
1724,-0.670333,0.112817,0.4747
1725,-0.671404,0.135553,0.523744
1726,0.122002,0.303422,0.435702
1727,0.347969,0.191644,0.613087
1728,0.385281,0.141801,0.803366
1729,0.176367,-0.188068,0.704317
1730,0.092048,-0.248565,0.713985
1731,0.053081,-0.326484,0.772166
1732,0.012828,-0.499708,0.857635
1733,-0.109156,-0.531278,0.912336
1734,-0.097049,-0.506914,0.911985
1735,-0.123672,-0.515044,0.883355
1736,-0.188036,-0.496187,0.809094
1737,-0.185926,-0.469511,0.680994
1738,-0.17125,-0.242272,0.466685
1739,-0.327211,1.361831,-0.903798
1740,-0.364959,2.414403,-1.385957
1741,1.038614,2.269557,-1.468746
1742,0.286151,-0.330152,-0.219074
1743,-0.049512,-0.549616,0.149224
1744,-0.475518,-0.348307,0.841412
1745,-0.420579,-0.26753,1.017347
1746,-0.171237,0.183498,0.935394
1747,0.058662,1.003995,0.339031
1748,-0.022996,0.382627,1.1613
1749,-0.023053,-0.358891,1.077849
1750,-0.170063,-0.14726,1.105913
1751,-0.146051,0.054067,0.803161
1752,-0.069443,0.218119,0.742736
1753,0.169363,0.326051,0.662159
1754,0.282328,0.25366,0.221587
1755,0.218102,0.150481,0.189524
1756,0.133475,-0.058601,0.382604
1757,0.004794,-0.318815,0.358529
1758,-0.022689,-0.371968,0.368657
1759,-0.019394,-0.219925,0.477311
1760,-0.041885,-0.22865,0.439606
1761,-0.117022,0.029325,-0.173832
1762,0.007465,-0.067113,-0.066375
1763,0.306329,-0.152339,0.23963
1764,0.435894,-0.160252,0.307711
1765,0.538872,0.048711,0.25593
1766,0.531122,0.119743,-0.041134
1767,0.163586,0.274405,-0.195044
1768,-0.035701,0.329582,-0.042689
1769,0.380943,0.51554,0.268796
1770,0.693882,0.580246,0.378716
1771,0.886643,0.63333,0.264744
1772,0.641733,0.57218,0.273948
1773,-0.066682,0.703113,0.121372
1774,-0.32784,0.107293,-0.26535
1775,-0.388105,0.030151,-0.461696
1776,-0.664777,0.301713,0.117365
1777,-0.848185,0.324336,0.722968
1778,-0.576817,0.006844,0.617784
1779,-0.45082,0.048907,0.523106
1780,0.053454,0.205491,0.353013
1781,0.234653,0.518133,0.442005
1782,0.211948,0.486122,0.672123
1783,0.326482,0.244888,0.824942
1784,0.024263,-0.183738,0.618585
1785,0.011335,-0.265785,0.607157
1786,0.091522,-0.443194,0.648232
1787,0.069021,-0.473587,0.73992
1788,0.064031,-0.348456,0.813545
1789,0.039253,-0.323425,0.788092
1790,0.030834,-0.383709,0.754821
1791,-0.034802,-0.640568,0.707817
1792,-0.121383,-0.622625,0.47315
1793,-0.135776,-0.523932,0.317015
1794,-0.331017,0.66991,-0.839564
1795,-0.217017,2.298736,-1.029756
1796,0.906607,1.566212,-0.568914
1797,0.283043,0.242662,-0.443966
1798,-0.404647,-0.162338,0.181915
1799,-0.857635,0.066849,0.563837
1800,-0.330029,0.639728,0.902185
1801,0.287939,-0.166536,0.790172
1802,0.02748,-0.624049,1.213289
1803,-0.429656,-0.542061,1.244851
1804,-0.371687,0.035586,1.28868
1805,-0.25135,0.461968,1.038917
1806,-0.105729,0.491843,0.833124
1807,0.255105,0.39207,0.794229
1808,0.458476,0.411768,0.580925
1809,0.379798,0.352616,0.420208
1810,-0.023458,-0.010919,0.300448
1811,-0.214761,-0.273086,0.350652
1812,-0.189499,-0.274751,0.412905
1813,-0.024738,-0.262266,0.407032
1814,-0.005949,-0.166081,0.16674
1815,-0.082221,-0.153255,0.246206
1816,-0.097137,-0.120295,0.067802
1817,0.009292,-0.210844,0.077013
1818,0.222593,-0.252294,0.137645
1819,0.475576,0.023683,0.232353
1820,0.451614,0.065712,-0.249603
1821,0.212079,0.13237,-0.340718
1822,-0.020579,0.287985,-0.109175
1823,0.36461,0.308605,0.237341
1824,0.553875,0.401118,0.259675
1825,0.516727,0.193886,0.01821
1826,0.128165,0.572758,-0.391377
1827,0.125733,0.566422,-0.385809
1828,0.404958,0.477899,-0.407072
1829,0.248638,0.542681,-0.016772
1830,-0.117029,0.548023,0.219526
1831,-0.797336,0.711345,1.543632
1832,-1.031371,0.674196,1.115747
1833,-0.630276,0.475304,0.41399
1834,0.021489,0.416327,0.395003
1835,-0.002178,0.361711,0.405943
1836,0.100473,0.21063,0.432678
1837,0.204651,-0.037199,0.833196
1838,0.199107,-0.064223,1.001439
1839,0.084452,-0.175845,0.910286
1840,-0.061243,-0.490336,0.86037
1841,-0.040644,-0.526025,0.871439
1842,-0.047043,-0.543118,0.902634
1843,-0.172493,-0.551509,0.920129
1844,-0.212578,-0.597693,0.890693
1845,-0.21827,-0.590078,0.882187
1846,-0.31981,-0.401571,0.766112
1847,-0.340919,-0.14438,0.533732
1848,-0.363548,0.110127,0.310396
1849,-0.274529,2.447894,-1.745761
1850,1.235323,2.376881,-0.967927
1851,1.127757,0.986851,-0.417304
1852,-0.051696,-0.703548,0.550912
1853,-1.017701,-0.568185,0.831624
1854,-0.91858,-0.443756,0.82896
1855,-0.51741,0.711428,0.253723
1856,0.144343,1.482525,0.418439
1857,0.442572,-0.204133,1.628497
1858,0.175324,-0.428297,1.059153
1859,-0.043538,-0.163262,1.182112
1860,-0.217771,0.129704,0.842783
1861,-0.159138,0.340429,0.667015
1862,0.04856,0.399395,0.634836
1863,0.151472,0.178038,0.170022
1864,0.037059,0.124514,0.216353
1865,-0.072863,-0.220873,0.418502
1866,-0.071794,-0.365309,0.478351
1867,0.121687,-0.280825,0.430707
1868,0.09723,-0.084966,0.300835
1869,0.091229,-0.008499,0.259821
1870,0.06762,0.050298,-0.077934
1871,0.123445,-0.092707,-0.035419
1872,0.220008,-0.107582,0.059441
1873,0.40328,-0.037101,0.341954
1874,0.473673,0.117995,0.175302
1875,0.486162,0.119488,0.154058
1876,0.089134,0.181396,-0.30567
1877,0.168581,0.317045,0.071597
1878,0.342572,0.372356,0.208569
1879,0.574459,0.286982,0.240516
1880,0.396728,0.29454,-0.387692
1881,0.241123,0.438918,-0.399713
1882,0.349462,0.310066,-0.395623
1883,0.324467,0.767251,0.054075
1884,0.161604,0.723968,0.339256
1885,-0.874589,0.676499,1.205485
1886,-1.073622,0.718744,0.958837
1887,-1.045411,0.60642,0.7189
1888,-0.120736,0.416211,0.414043
1889,-0.118052,0.402788,0.449476
1890,0.006635,0.260691,0.455325
1891,0.386853,0.205147,0.886572
1892,0.448697,0.137253,1.015012
1893,0.245383,-0.041425,0.931616
1894,-0.019491,-0.330763,0.806936
1895,0.018669,-0.409097,0.865634
1896,-0.004486,-0.423842,0.921044
1897,-0.06332,-0.461616,0.922173
1898,-0.086184,-0.521336,0.910434
1899,-0.162955,-0.572091,0.914493
1900,-0.272962,-0.599256,0.872164
1901,-0.297103,-0.473179,0.592223
1902,-0.273079,-0.097274,0.368086
1903,-0.270627,1.003536,-0.838987
1904,0.160571,2.991526,-1.914542
1905,1.46497,1.292201,-0.800775
1906,0.666393,-0.242417,-0.069359
1907,-0.148386,-0.506602,0.737056
1908,-0.678723,-0.177706,0.92843
1909,-0.323281,0.371403,0.914479
1910,-0.090277,1.138551,-0.403206
1911,0.226458,0.368607,1.15593
1912,-0.272627,-0.382287,1.174617
1913,-0.45586,-0.351962,1.17641
1914,-0.357283,-0.16282,1.238351
1915,-0.319738,0.124319,0.896814
1916,-0.115701,0.44477,0.889834
1917,0.079792,0.545169,0.776984
1918,0.737585,0.613741,0.19275
1919,0.257001,-0.040344,0.35207
1920,0.086474,-0.232301,0.408175
1921,-0.151962,-0.356597,0.407651
1922,-0.144909,-0.196918,0.594597
1923,-0.048689,-0.195626,0.388846
1924,-0.055999,-0.04394,0.210881
1925,0.059614,-0.024664,0.032964
1926,0.094618,-0.061641,0.033033
1927,0.374798,-0.08804,0.283486
1928,0.430077,0.036736,0.319483
1929,0.451274,0.076346,0.306589
1930,0.379979,-0.003172,-0.034943
1931,0.026202,0.166827,-0.010195
1932,-0.05283,0.249525,0.073751
1933,0.376027,0.442765,0.428009
1934,0.509034,0.253349,0.200705
1935,0.454102,0.133911,-0.057076
1936,0.293473,0.427223,-0.412711
1937,0.417544,0.406709,-0.410466
1938,0.490666,0.400596,-0.401008
1939,0.537556,0.529929,-0.081436
1940,0.198899,0.344961,0.413395
1941,-0.086019,0.431243,0.657044
1942,-0.888828,0.96612,1.184129
1943,-1.109748,0.41934,0.597
1944,-0.671178,0.237866,0.535001
1945,-0.017689,0.315614,0.37198
1946,0.290884,0.297333,0.522789
1947,0.441782,0.122036,0.707138
1948,0.506339,0.139475,0.901415
1949,0.230913,-0.080624,0.767423
1950,0.051011,-0.241179,0.836089
1951,-0.035243,-0.387234,0.890547
1952,-0.090017,-0.429539,0.964451
1953,-0.155592,-0.446233,0.985577
1954,-0.164297,-0.509073,0.937923
1955,-0.217012,-0.538616,0.8942
1956,-0.25834,-0.499166,0.835633
1957,-0.303673,-0.438686,0.724251
1958,-0.28327,-0.202949,0.470824
1959,-0.267341,0.380674,-0.064374
1960,-0.144347,1.902989,-1.429365
1961,1.349888,1.717421,-0.620827
1962,1.036199,0.729407,-0.445122
1963,0.214806,-0.224137,-0.105202
1964,-0.599847,-0.163492,0.662776
1965,-0.478531,-0.330224,0.703407
1966,-0.088503,0.132728,0.857598
1967,0.220086,0.78546,0.330447
1968,0.236503,0.390228,0.590981
1969,-0.227072,-0.368935,0.706416
1970,-0.285651,-0.345264,0.953634
1971,-0.281342,-0.199273,1.086798
1972,-0.213386,0.19594,0.821707
1973,-0.168714,0.298428,0.763132
1974,0.33132,0.42379,0.446226
1975,0.33851,0.270721,0.116046
1976,0.167421,0.00427,0.370111
1977,0.063718,-0.257074,0.539758
1978,0.076867,-0.190954,0.649662
1979,0.130753,-0.149552,0.578537
1980,0.230391,-0.054159,0.409209
1981,0.124121,-0.028477,0.089999
1982,-0.031791,-0.042209,0.077473
1983,-0.054427,-0.076662,0.043476
1984,0.084797,-0.213845,0.190582
1985,0.226969,-0.094805,0.269809
1986,0.264517,-0.016444,0.261544
1987,0.26495,0.010506,0.129041
1988,0.297637,0.095082,0.023808
1989,0.263655,0.19248,0.049545
1990,0.266,0.237211,0.255727
1991,0.478152,0.419824,0.244573
1992,0.476494,0.371209,0.17571
1993,0.223442,0.36405,-0.32404
1994,0.228404,0.505737,-0.363173
1995,0.585236,0.440939,-0.299971
1996,0.692091,0.732645,0.082136
1997,0.261966,0.448706,0.237816
1998,-0.350154,0.286673,0.518777
1999,-0.798652,0.702906,1.102471
2000,-1.148575,0.633864,0.708829
2001,-0.533906,0.207659,0.481171
2002,-0.122351,0.244532,0.402893
2003,0.152546,0.276267,0.491893
2004,0.365212,0.117777,0.645422
2005,0.486842,0.165687,0.93835
2006,0.25086,-0.039792,0.741646
2007,0.169783,-0.13139,0.787934
2008,0.034932,-0.261301,0.81405
2009,-0.118981,-0.441806,0.936994
2010,-0.149983,-0.476753,0.959096
2011,-0.118502,-0.437521,0.957876
2012,-0.195766,-0.469,0.93389
2013,-0.238611,-0.503027,0.89407
2014,-0.253779,-0.519228,0.802712
2015,-0.199455,-0.182926,0.472223
2016,-0.207772,0.556175,-0.314098
2017,0.367212,2.815014,-1.576152
2018,1.106227,2.231578,-0.971406
2019,1.15531,1.083641,-0.453946
2020,0.004081,-0.164071,0.018326
2021,-0.7103,0.144905,0.700932
2022,-0.740664,0.138487,0.686627
2023,0.11175,0.363976,0.823068
2024,0.185331,0.494119,0.447854
2025,0.08279,0.256167,0.761798
2026,-0.419264,-0.373413,1.061306
2027,-0.329515,-0.228052,0.881441
2028,-0.275386,-0.079998,1.067279
2029,-0.197308,0.209305,0.814595
2030,-0.006808,0.366177,0.713385
2031,0.187325,0.407556,0.549917
2032,0.340492,0.230238,0.272581
2033,0.200433,0.0273,0.416155
2034,0.103085,-0.251484,0.496649
2035,0.053137,-0.238813,0.537719
2036,0.099055,-0.148456,0.652949
2037,0.153967,-0.050644,0.05868
2038,0.017141,-0.00385,0.131316
2039,-0.090454,-0.024055,0.084362
2040,-0.098421,-0.148176,0.110848
2041,0.049397,-0.232737,0.201579
2042,0.163862,-0.132242,0.261908
2043,0.286962,0.047136,0.266439
2044,0.34506,0.082067,0.121176
2045,0.167784,0.236611,-0.018424
2046,0.110237,0.249392,-0.007285
2047,0.216339,0.265735,0.138868
2048,0.519352,0.397309,0.24258
2049,0.587076,0.372104,0.068712
2050,0.428321,0.556109,-0.188898
2051,0.541246,0.497491,-0.254489
2052,0.559761,0.526085,-0.113009
2053,0.335641,0.607731,-0.029408
2054,-0.492008,0.285248,0.443305
2055,-0.734917,0.608599,0.847048
2056,-1.05163,0.807526,1.07338
2057,-0.414664,0.18672,0.493121
2058,-0.148908,0.226083,0.454043
2059,0.08748,0.370919,0.438129
2060,0.369532,0.152087,0.630488
2061,0.457173,0.20196,0.909384
2062,0.197533,0.077916,0.811723
2063,0.035701,-0.016359,0.822808
2064,-0.026824,-0.298379,0.89555
2065,-0.044219,-0.456327,0.922804
2066,-0.060665,-0.481335,0.943497
2067,-0.09723,-0.498793,0.935524
2068,-0.185148,-0.494152,0.918635
2069,-0.189068,-0.512423,0.883623
2070,-0.188038,-0.527017,0.842257
2071,-0.223348,-0.313685,0.578779
2072,-0.275434,0.267762,0.1214
2073,-0.347288,1.824605,-1.306619
2074,0.610347,2.788244,-1.361092
2075,0.979273,0.585365,-0.351318
2076,0.131358,-0.170542,-0.031183
2077,-0.45679,-0.156855,0.283733
2078,-0.448276,-0.126525,0.520461
2079,-0.07686,-0.11221,0.710553
2080,0.038634,0.445196,0.819482
2081,-0.198727,0.804643,0.266908
2082,-0.123713,0.03843,0.845999
2083,-0.195578,-0.202463,0.875646
2084,0.050486,-0.239633,1.178349
2085,0.072977,0.124664,1.208323
2086,0.123524,0.363571,0.783149
2087,0.278372,0.372506,0.48747
2088,0.186172,0.251927,0.469713
2089,0.028842,0.17503,0.338447
2090,0.083533,-0.047341,0.417732
2091,0.057405,-0.173799,0.447691
2092,0.001311,-0.246424,0.449475
2093,0.042873,-0.126536,0.395247
2094,0.073406,-0.053999,0.391472
2095,0.129857,0.033872,0.239277
2096,0.035577,-0.154014,0.12571
2097,-0.014947,-0.184047,0.014409
2098,-0.04006,-0.137422,0.122168
2099,0.109557,-0.112812,0.375886
2100,0.264747,0.026557,0.311031
2101,0.536512,0.100579,0.076206
2102,0.202992,0.286412,0.004658
2103,0.100305,0.342627,0.066385
2104,0.467701,0.456598,0.293909
2105,0.600613,0.435109,0.260357
2106,0.590203,0.384428,-0.08016
2107,0.473727,0.546619,-0.287174
2108,0.555952,0.54064,-0.2018
2109,0.490019,0.658348,-0.059485
2110,-0.135984,0.227636,0.12287
2111,-0.57956,0.481311,0.787126
2112,-0.688381,0.766304,1.1441
2113,-0.989679,0.362056,0.634631
2114,-0.243843,0.215485,0.477729
2115,-0.043612,0.340566,0.492002
2116,0.083859,0.297576,0.52772
2117,0.302265,0.181671,0.717291
2118,0.398255,0.061943,0.975067
2119,0.269687,-0.040901,0.833869
2120,0.08513,-0.213618,0.835451
2121,0.035797,-0.392199,0.878771
2122,-0.034422,-0.4741,0.918006
2123,-0.116991,-0.436256,0.971645
2124,-0.14423,-0.440153,0.956823
2125,-0.136727,-0.496104,0.90174
2126,-0.141305,-0.501347,0.843201
2127,-0.138874,-0.49106,0.750147
2128,-0.145748,-0.092809,0.442527
2129,-0.239484,1.988886,-1.267933
2130,-0.046789,2.937541,-1.443614
2131,0.86398,0.560104,-0.317549
2132,-0.105105,-0.23641,-0.138874
2133,-0.529691,-0.095011,0.055659
2134,-0.869768,0.071833,0.521382
2135,-0.267989,0.078354,0.747054
2136,0.369131,0.444721,0.898335
2137,0.311115,0.209767,0.678434
2138,-0.45005,-0.318282,0.903919
2139,-0.574272,-0.273247,0.69296
2140,-0.044021,-0.119849,1.163989
2141,0.054375,0.281165,1.18472
2142,0.10473,0.453463,0.838024
2143,0.380017,0.410333,0.475099
2144,0.019708,0.180883,0.431664
2145,-0.045132,0.131536,0.364331
2146,-0.039574,-0.012123,0.437646
2147,-0.078115,-0.227499,0.520566
2148,-0.059948,-0.238233,0.506754
2149,0.080975,0.012253,0.386386
2150,0.09811,0.040552,0.359672
2151,0.103045,0.044968,0.313475
2152,0.128838,-0.119077,0.245938
2153,0.101116,-0.173092,0.187751
2154,0.038414,-0.223991,0.189098
2155,0.09463,0.063627,0.158955
2156,0.181426,0.19829,0.105726
2157,0.277461,0.183531,0.083896
2158,0.303606,0.079366,0.159686
2159,0.157414,0.218275,0.216465
2160,0.282772,0.341915,0.235917
2161,0.564707,0.416488,0.293747
2162,0.484221,0.345382,0.068546
2163,0.277653,0.541876,-0.184779
2164,0.357121,0.49133,-0.298872
2165,0.46948,0.395218,-0.164345
2166,0.298544,0.491846,-0.030303
2167,-0.325003,0.126239,0.357295
2168,-0.530522,0.316505,0.744684
2169,-0.652496,0.639588,1.025665
2170,-0.87024,0.456132,0.73476
2171,-0.088523,0.221136,0.457796
2172,-0.098539,0.243744,0.501972
2173,0.192957,0.231026,0.595225
2174,0.213642,0.098321,0.789409
2175,0.379432,0.107805,0.960221
2176,0.304995,0.06485,0.809184
2177,0.11253,-0.149671,0.769264
2178,0.017606,-0.347468,0.815171
2179,-0.050504,-0.440443,0.890958
2180,-0.177409,-0.445172,0.927906
2181,-0.241223,-0.386032,0.943252
2182,-0.237384,-0.382594,0.908871
2183,-0.231783,-0.450365,0.824926
2184,-0.254869,-0.384206,0.605538
2185,-0.242528,-0.125405,0.328197
2186,-0.185437,1.185243,-0.929668
2187,-0.028598,1.858316,-1.165634
2188,0.807954,1.764541,-0.623791
2189,0.271211,0.157532,-0.216365
2190,0.053624,-0.083823,-0.057286
2191,-0.350699,-0.07692,0.494871
2192,-0.354421,0.195141,0.834809
2193,-0.181781,0.404539,0.745402
2194,-0.130394,0.171513,0.729056
2195,-0.360912,0.001019,0.850064
2196,-0.416158,-0.166434,0.878709
2197,-0.213986,-0.318494,1.05284
2198,-0.175051,-0.196812,1.112567
2199,-0.1623,0.20572,0.907725
2200,-0.036896,0.42353,0.85805
2201,0.291614,0.506238,0.656892
2202,0.70982,0.322416,0.146499
2203,0.209345,0.004704,0.283609
2204,-0.058018,-0.195566,0.523774
2205,-0.18845,-0.260045,0.642431
2206,-0.068269,-0.234498,0.479485
2207,-0.05617,-0.20682,0.338097
2208,-0.027044,0.015695,0.286963
2209,0.014237,0.068982,0.07157
2210,0.01194,0.020547,0.051754
2211,0.13288,-0.206141,0.245023
2212,0.212729,-0.157956,0.393581
2213,0.279251,-0.050322,0.356737
2214,0.316513,0.02643,0.079698
2215,0.186163,0.176741,0.075933
2216,0.031017,0.251947,0.141814
2217,0.0346,0.269213,0.175335
2218,0.330724,0.374442,0.335703
2219,0.207232,0.208751,0.089238
2220,0.106961,0.278695,-0.033201
2221,0.217589,0.395436,-0.153402
2222,0.495268,0.414619,-0.126908
2223,0.548814,0.499183,-0.040872
2224,0.143636,0.273934,0.141309
2225,-0.289157,0.186106,0.055319
2226,-0.653193,0.496519,0.680082
2227,-0.805382,0.61376,1.060635
2228,-0.267929,0.160436,0.563726
2229,-0.155365,0.131529,0.504638
2230,0.005529,0.197079,0.406943
2231,0.141642,0.158911,0.501761
2232,0.276784,0.186859,0.783291
2233,0.347622,0.249924,0.918546
2234,0.148323,0.045708,0.771192
2235,-0.008814,-0.134822,0.830731
2236,-0.079255,-0.256808,0.861115
2237,-0.158321,-0.345689,0.900378
2238,-0.236921,-0.392865,0.946738
2239,-0.225288,-0.415477,0.969652
2240,-0.206784,-0.474905,0.897329
2241,-0.28546,-0.498674,0.78317
2242,-0.327234,-0.419701,0.633507
2243,-0.296631,-0.181738,0.443252
2244,-0.317981,0.435702,-0.293983
2245,-0.304491,2.093028,-1.514421
2246,1.41305,1.191862,-0.415539
2247,1.092918,0.48822,-0.215501
2248,0.122377,-0.192253,0.269391
2249,-0.45653,-0.097009,0.77721
2250,-0.334009,0.004334,0.926214
2251,-0.066367,0.558442,0.971082
2252,-0.284085,0.796614,0.204105
2253,-0.569809,0.230379,0.452309
2254,-0.381629,-0.623011,1.348415
2255,-0.328302,-0.679799,1.009773
2256,-0.220044,-0.170372,1.136266
2257,-0.19839,0.304583,0.965438
2258,0.005137,0.70901,0.900887
2259,0.821494,0.825299,0.350015
2260,0.912603,0.290381,0.009656
2261,0.494562,0.02764,0.117544
2262,-0.183426,-0.437007,0.556396
2263,-0.212784,-0.273928,0.636717
2264,-0.191064,-0.26327,0.528779
2265,-0.185821,0.023365,0.12873
2266,-0.203802,0.081097,0.123787
2267,-0.059889,0.02021,0.135901
2268,0.0176,-0.023214,0.204707
2269,0.176301,-0.24606,0.239886
2270,0.329674,-0.078761,0.367152
2271,0.363026,0.002715,0.331242
2272,0.19208,0.134381,0.013073
2273,0.104246,0.247741,0.035606
2274,0.125186,0.252864,0.097294
2275,0.489643,0.385265,0.358138
2276,0.43187,0.284265,0.1747
2277,0.224857,0.3777,-0.168524
2278,0.283882,0.421907,-0.171351
2279,0.552137,0.428194,-0.19592
2280,0.599382,0.578578,0.074725
2281,0.172554,0.384526,0.190348
2282,-0.414766,0.309988,0.305197
2283,-0.902285,0.831606,0.956776
2284,-1.101221,0.696897,0.964174
2285,-0.615505,0.212394,0.632138
2286,-0.218696,0.248439,0.488822
2287,-0.051292,0.327712,0.428322
2288,0.12008,0.230639,0.572684
2289,0.22502,0.181012,0.811309
2290,0.313865,0.129067,0.976175
2291,0.0296,-0.159865,0.81218
2292,-0.028766,-0.206667,0.849604
2293,-0.012513,-0.34718,0.921877
2294,-0.106687,-0.398763,0.943838
2295,-0.117921,-0.37622,0.955364
2296,-0.11276,-0.373419,0.958672
2297,-0.253519,-0.439689,0.907243
2298,-0.29176,-0.459437,0.84967
2299,-0.295014,-0.328905,0.62637
2300,-0.274321,-0.21815,0.497
2301,-0.246023,0.640669,-0.704463
2302,-0.119077,2.746024,-1.980977
2303,0.466455,2.815707,-1.163183
2304,0.42081,0.12397,-0.117585
2305,-0.320285,0.137055,0.155117
2306,-0.833263,0.055824,0.536823
2307,-0.603978,-0.018271,0.525844
2308,-0.129149,0.613055,0.318949
2309,0.737442,0.399787,1.233686
2310,0.034848,-0.304108,1.259823
2311,-0.267345,-0.254804,0.845936
2312,-0.209833,-0.095921,1.047165
2313,-0.127202,0.074232,1.230906
2314,-0.081392,0.357635,0.854397
2315,0.166423,0.438606,0.636882
2316,0.269304,0.42009,0.535917
2317,0.035,0.127975,0.381383
2318,-0.125106,-0.034355,0.461926
2319,-0.227559,-0.260157,0.499732
2320,-0.20362,-0.277679,0.47926
2321,-0.070884,-0.159036,0.672733
2322,0.18628,0.022936,0.423761
2323,0.20029,0.039296,0.21492
2324,0.036447,-0.003152,-0.011164
2325,-0.075702,-0.093051,0.14452
2326,0.023212,-0.180008,0.285703
2327,0.196234,-0.111967,0.276107
2328,0.389428,0.053756,0.26811
2329,0.378931,-0.002205,0.168263
2330,0.119265,0.025528,0.006309
2331,-0.111084,0.188213,0.091276
2332,0.077552,0.227702,0.31285
2333,0.466288,0.35762,0.471471
