,userAcceleration.x,userAcceleration.y,userAcceleration.z
0,0.041126,-0.433959,0.406247
1,-0.065199,1.82627,1.329866
2,0.280262,3.113561,0.378628
3,0.098575,0.503434,0.125589
4,-0.153986,-1.038842,0.55811
5,0.263557,-1.006929,0.960815
6,0.791459,0.270389,0.439461
7,0.982015,2.416577,0.119533
8,0.017465,-1.009416,-0.440238
9,0.060389,-1.657235,-0.078827
10,0.056679,-1.210172,-1.187198
11,0.121322,-0.885063,-0.917959
12,0.235352,-0.656519,-0.837134
13,0.674599,0.761184,-0.353958
14,0.305709,1.341123,-0.052574
15,-0.187389,0.593045,0.123274
16,-0.14265,-0.220262,0.10975
17,-0.070566,-0.547658,0.064865
18,-0.026325,-0.539482,-0.106601
19,0.018362,-0.475614,-0.251071
20,-0.105319,-0.432827,-0.170131
21,-0.07721,-0.350597,0.577265
22,0.015069,0.098386,0.720852
23,-0.092721,0.195043,0.511928
24,-0.171081,0.223257,0.314263
25,-0.350343,0.156849,0.303322
26,-0.198101,0.269925,0.80844
27,-0.200028,0.388159,0.031003
28,-0.454513,0.709061,-0.308818
29,-0.264616,0.727729,0.453573
30,-0.06096,0.682525,0.455851
31,0.039344,0.618488,0.284956
32,-0.174829,0.594747,0.457434
33,-0.130923,0.54462,0.613777
34,0.616895,0.288706,0.331931
35,1.280436,0.326838,-0.338424
36,1.480649,0.208042,-0.245947
37,1.454967,-0.015749,0.498748
38,0.552613,0.288908,0.469965
39,0.440915,0.218132,0.012558
40,-0.080878,0.191093,-0.587631
41,-0.296465,0.236372,-0.190434
42,-0.0912,-0.072869,-0.341212
43,0.151834,-0.534208,-0.46371
44,0.127326,-1.1276,-0.626078
45,0.070036,-1.256734,-0.585679
46,-0.000854,-1.271541,-0.52784
47,-0.101022,-1.181056,-0.236314
48,-0.109711,-1.176443,-0.243238
49,-0.076268,-1.310215,-0.075364
50,-0.039039,-0.785236,0.25671
51,-0.051605,0.797635,1.080664
52,0.442871,2.460037,0.515612
53,0.119945,0.277844,0.125708
54,-0.267366,-1.041565,0.483196
55,-0.200193,-1.310568,0.817438
56,0.054491,-0.348498,0.030673
57,1.374246,0.130594,-0.454457
58,2.675408,4.410488,0.918373
59,-0.496892,-0.551283,-1.214689
60,-0.38601,-2.092734,-0.039665
61,-0.040585,-1.640204,-1.099684
62,0.092097,-1.044222,-0.995177
63,0.259907,-0.769949,-0.85586
64,1.082877,0.872231,-0.313424
65,0.660766,1.48731,-0.282682
66,0.217789,1.42451,0.074603
67,-0.398297,-0.336595,0.214073
68,-0.162523,-0.549015,0.035402
69,-0.095363,-0.546225,-0.02351
70,-0.002518,-0.45219,-0.170267
71,-0.100432,-0.442155,0.159975
72,-0.10182,-0.391201,0.592907
73,-0.1096,0.164283,0.675073
74,-0.25315,0.141223,0.040335
75,-0.266984,0.159199,0.057908
76,-0.20325,0.284705,0.593538
77,-0.035037,0.353173,0.582353
78,-0.084412,0.398544,0.155001
79,-0.1536,0.676556,0.19599
80,0.120749,0.559203,0.698499
81,0.233991,0.665731,0.480309
82,-0.145112,0.643748,0.212978
83,-0.074316,0.567992,0.778596
84,-0.052011,0.529451,0.702175
85,0.821221,0.390167,-0.278901
86,1.191383,0.263402,-0.219201
87,1.210172,0.251792,-0.283018
88,0.908105,0.147744,0.568822
89,0.492828,0.189029,0.131319
90,0.092276,0.013279,-0.666062
91,-0.300042,0.42836,-0.143245
92,-0.296007,0.087992,-0.179626
93,0.117668,-0.380744,-0.469001
94,0.217113,-0.684937,-0.572382
95,0.021233,-1.157518,-0.53188
96,-0.013322,-1.173747,-0.52765
97,-0.109746,-1.179592,-0.311398
98,-0.112277,-1.218823,-0.249007
99,-0.133246,-1.212888,-0.174492
100,-0.062157,-0.767458,0.260683
101,-0.035665,0.800246,1.012856
102,0.064816,2.108332,1.334653
103,0.250829,1.308081,0.070966
104,0.068724,0.172182,0.048731
105,-0.071363,-1.000409,0.750432
106,0.755264,0.14367,0.786322
107,1.086197,1.418742,-0.33079
108,0.19165,0.487716,-0.652897
109,0.375192,-1.564229,0.119495
110,0.134461,-1.267234,-0.325969
111,-0.034911,-1.020768,-1.206161
112,0.224382,-0.527067,-0.778783
113,0.50456,-0.114351,-0.601522
114,0.527182,0.718482,-0.168511
115,-0.04009,0.744159,-0.119063
116,-0.261037,0.159504,0.062712
117,-0.17693,-0.119682,0.082546
118,-0.055739,-0.36994,0.069122
119,-0.112867,-0.333398,-0.163507
120,-0.187796,-0.240518,-0.28257
121,-0.189948,-0.319471,0.263012
122,0.008719,-0.331742,0.59093
123,0.15684,-0.236048,0.628621
124,0.058438,0.063356,0.406213
125,-0.298103,0.191568,0.151686
126,-0.341394,0.208097,0.381607
127,-0.137421,0.304136,0.673451
128,-0.331355,0.6431,-0.252966
129,-0.403526,0.741534,-0.207447
130,-0.07034,0.633892,0.618618
131,0.149325,0.626223,0.290837
132,-0.001418,0.632273,0.299605
133,-0.341211,0.659543,0.328843
134,0.154304,0.355283,0.547217
135,0.4263,0.204969,0.328854
136,0.825822,0.26833,-0.309708
137,1.240328,0.183959,-0.008374
138,1.261446,0.173353,-0.054136
139,0.648392,0.231186,0.518194
140,0.249349,-0.017922,-0.51083
141,0.045601,-0.030275,-0.767333
142,-0.421284,0.252994,-0.036744
143,-0.026284,-0.211971,-0.419497
144,0.146653,-0.372426,-0.500311
145,0.264093,-0.898902,-0.645566
146,0.182217,-1.203731,-0.652624
147,0.123377,-1.226817,-0.552263
148,-0.022446,-1.286037,-0.2892
149,-0.025568,-1.315768,-0.202734
150,-0.045044,-1.248234,-0.107366
151,-0.028634,-0.573135,0.370646
152,-0.075916,1.369832,1.402752
153,0.013549,2.792776,1.326059
154,0.175093,0.70884,0.091768
155,-0.029686,-0.833217,0.565454
156,0.197573,-1.089765,0.791025
157,0.919629,0.372332,0.527696
158,0.942456,1.002133,-0.144013
159,0.388539,1.462249,-0.354744
160,0.24789,-1.56286,0.293647
161,0.102076,-1.185655,-0.869384
162,0.020058,-0.975421,-1.356762
163,0.299196,-0.438929,-0.831422
164,0.627631,1.008242,-0.394605
165,0.393691,1.317628,-0.180486
166,-0.123146,0.888191,0.020146
167,-0.158599,-0.318021,0.071028
168,-0.165957,-0.311935,0.099976
169,-0.034922,-0.639925,0.040784
170,-0.010785,-0.61447,-0.234837
171,-0.019531,-0.549437,-0.231233
172,0.044811,-0.315201,0.610812
173,0.089317,0.102217,0.645447
174,0.047479,0.190088,0.522151
175,-0.259652,0.189065,0.158122
176,-0.278509,0.175425,0.377068
177,-0.205928,0.251764,0.570251
178,-0.204358,0.453076,-0.109208
179,-0.202786,0.752916,0.005953
180,-0.142149,0.68423,0.366216
181,0.108289,0.733474,0.46438
182,0.030173,0.722156,0.313673
183,-0.27081,0.676699,0.268091
184,0.038967,0.366137,0.611589
185,0.552507,0.290499,0.108411
186,0.778135,0.350243,-0.252135
187,1.33263,0.327817,-0.186427
188,1.257868,0.140401,0.342734
189,0.853449,0.233679,0.514922
190,0.099466,-0.099734,-0.814659
191,-0.074114,0.232298,-0.415504
192,-0.278844,0.415581,-0.118371
193,-0.119531,-0.28738,-0.3739
194,0.211514,-0.636788,-0.496379
195,0.245825,-0.840217,-0.485587
196,0.113768,-1.207216,-0.605306
197,-0.014927,-1.140712,-0.400601
198,-0.050387,-1.11805,-0.353296
199,-0.028995,-1.202416,-0.279259
200,-0.016483,-1.16689,-0.166111
201,0.005402,-1.065879,-0.069736
202,0.11156,0.423944,0.75451
203,0.142993,1.496645,1.254713
204,0.360113,2.826069,0.593956
205,-0.055036,-0.181829,0.077987
206,-0.270128,-1.065226,0.545002
207,-0.186513,-1.213563,0.716024
208,0.367248,0.029533,-0.022444
209,1.527137,1.130188,-0.490214
210,1.883105,2.779825,0.293643
211,-0.039507,-1.198668,-0.564235
212,0.018784,-1.914236,-0.115928
213,0.081121,-1.778166,-0.538651
214,0.178796,-0.947611,-0.871211
215,0.896313,0.292725,-0.760292
216,0.968866,0.969993,-0.756345
217,0.236171,1.663135,0.243785
218,-0.418641,-0.018378,0.227565
219,-0.246461,-0.269197,0.055914
220,-0.140593,-0.472948,-0.110035
221,0.017889,-0.541836,-0.168608
222,0.016313,-0.535942,-0.135897
223,0.021107,-0.499259,0.462577
224,0.077743,-0.037725,0.61264
225,0.041001,0.036558,0.570214
226,-0.068039,0.103548,0.2909
227,-0.311235,0.18072,0.166241
228,-0.322468,0.196677,0.18561
229,-0.082212,0.285394,0.289473
230,-0.283404,0.534669,-0.217566
231,-0.262783,0.679727,-0.059004
232,0.124681,0.54219,0.706404
233,0.141352,0.560781,0.447954
234,0.004669,0.514939,0.397274
235,-0.398197,0.369637,0.507131
236,-0.063025,0.326055,0.322843
237,0.200652,0.335135,0.081494
238,1.298236,0.530792,-0.108978
239,1.531247,0.331739,0.088537
240,1.49934,0.140455,0.341398
241,0.591684,0.177548,0.055644
242,0.262648,-0.059885,-0.55582
243,0.061972,-0.041891,-0.703299
244,-0.479029,0.25632,-0.101843
245,0.026181,-0.216055,-0.416914
246,0.207586,-0.421372,-0.443655
247,0.23617,-1.037202,-0.635427
248,0.177144,-1.21303,-0.600815
249,0.084689,-1.202049,-0.459968
250,0.013975,-1.267405,-0.312476
251,0.043935,-1.371467,-0.169151
252,-0.002742,-1.389686,-0.131906
253,0.032707,-0.601793,0.158606
254,0.027209,1.050647,1.276268
255,0.197833,2.87529,1.477587
256,0.064717,0.991159,0.108306
257,-0.098891,-0.870691,0.431894
258,-0.065882,-1.295435,0.552778
259,0.59396,-0.313703,0.279792
260,1.036155,0.607675,-0.371625
261,1.42477,3.016258,0.082831
262,-0.139572,-0.815347,-0.386605
263,-0.13544,-1.778941,-0.048379
264,0.122998,-1.444036,-0.954706
265,0.260385,-0.978765,-0.910217
266,0.65256,-0.389696,-0.697865
267,1.01564,0.738848,-0.476732
268,0.414474,1.298893,-0.1551
269,-0.434975,0.20594,0.156692
270,-0.441345,0.212011,0.179584
271,-0.190313,-0.424103,-0.037261
272,-0.079278,-0.469973,-0.142808
273,-0.088647,-0.489576,-0.143711
274,0.010702,-0.38166,0.615837
275,0.108751,-0.059715,0.608372
276,0.030682,0.033036,0.437778
277,-0.09794,0.123489,0.13127
278,-0.164912,0.131619,0.148774
279,-0.275305,0.220408,0.571831
280,-0.208331,0.376279,0.25068
281,-0.304155,0.499095,-0.017288
282,-0.239206,0.67492,0.472538
283,0.130392,0.56,0.602689
284,0.100979,0.534181,0.399577
285,-0.07098,0.646271,0.308842
286,-0.249498,0.542383,0.500322
287,0.389632,0.452715,0.489722
288,0.736704,0.42127,0.192345
289,1.445988,0.382322,-0.244098
290,1.615913,-0.062885,0.322978
291,1.186897,-0.061433,0.653142
292,0.425368,0.123828,-0.13253
293,0.027612,-0.067841,-0.901844
294,-0.168018,0.355025,-0.381092
295,-0.375125,0.250252,-0.240311
296,0.083592,-0.333222,-0.376875
297,0.228321,-0.576938,-0.479496
298,0.239559,-1.270221,-0.690962
299,0.056225,-1.363734,-0.412909
300,-0.090137,-1.22639,-0.273488
301,-0.090393,-1.286511,-0.290019
302,-0.067789,-1.248181,-0.182689
303,-0.09966,-1.212461,-0.103026
304,-0.08155,-0.120521,0.599293
305,0.341453,2.759956,0.975039
306,0.393459,2.41908,0.45885
307,0.025184,0.365522,0.231933
308,0.200003,-1.165645,0.828463
309,0.548955,-0.644399,0.824595
310,0.733213,0.426989,0.197902
311,0.765054,2.291469,-0.320379
312,0.801998,2.283731,-0.336075
313,0.124029,-1.686082,-0.206365
314,0.083834,-1.070149,-1.472039
315,0.099019,-0.908652,-1.122755
316,0.664384,0.051754,-0.663562
317,0.772756,0.721778,-0.29146
318,0.354145,1.395819,0.046169
319,-0.324467,0.287088,0.136148
320,-0.111623,-0.408144,0.125203
321,-0.055585,-0.568282,-0.024487
322,-0.013746,-0.542538,-0.359289
323,-0.045888,-0.489228,-0.278574
324,-0.070589,-0.507955,-0.016262
325,0.188136,0.015853,0.77161
326,0.062706,0.159691,0.737512
327,-0.095704,0.286363,0.54295
328,-0.432456,0.180045,0.221434
329,-0.187028,0.326794,0.772462
330,-0.144507,0.384213,0.611196
331,-0.340692,0.71045,-0.197751
332,-0.042955,0.696926,0.485106
333,0.085229,0.768127,0.492368
334,-0.070918,0.866664,0.266922
335,-0.144281,0.727986,0.306002
336,0.046918,0.548425,0.482884
337,0.665196,0.111369,0.300876
338,1.048542,0.299724,-0.422988
339,1.183445,0.310559,-0.388195
340,1.129898,0.227317,0.542674
341,0.686409,0.259205,0.443342
342,0.473837,-0.056217,-0.395754
343,0.029908,-0.007113,-0.689075
344,-0.559453,0.222532,0.024496
345,-0.225566,-0.052903,-0.378033
346,0.06819,-0.526353,-0.362816
347,0.16882,-0.852576,-0.643725
348,0.078278,-1.194643,-0.611497
349,-0.02714,-1.290804,-0.453755
350,-0.08488,-1.218697,-0.379022
351,-0.096364,-1.238109,-0.347653
352,-0.135833,-1.012252,-0.062208
353,-0.124701,-0.113341,0.573261
354,-0.132383,0.820627,1.12793
355,0.269808,2.262678,0.422136
356,0.177176,0.367289,0.192279
357,0.061053,-0.416319,0.349257
358,0.640344,-0.880678,0.713442
359,0.758181,-0.275972,0.526486
360,1.531162,0.567307,-0.187879
361,1.296329,2.165912,0.433611
362,-0.150105,-1.392103,-0.251126
363,-0.112451,-1.344661,-0.340328
364,-0.117282,-0.89286,-1.251796
365,0.186261,-0.520289,-0.914169
366,0.526884,0.02077,-0.440504
367,0.540862,1.124654,-0.187815
368,0.39079,1.136488,-0.191417
369,-0.1168,0.500364,-0.055012
370,-0.113912,-0.52234,0.108891
371,-0.017547,-0.633154,0.043878
372,0.037625,-0.599786,-0.009425
373,-0.02173,-0.457473,-0.116034
374,-0.09376,-0.438041,0.291595
375,-0.057486,-0.366849,0.543031
376,0.020419,0.043472,0.637586
377,-0.145071,0.096536,0.244628
378,-0.247402,0.119086,0.11672
379,-0.218046,0.319617,0.582618
380,-0.205847,0.443358,0.313638
381,-0.255308,0.715622,-0.112005
382,-0.047647,0.669571,0.430112
383,0.142634,0.645147,0.613176
384,-0.000211,0.643149,0.272589
385,-0.2098,0.695648,0.410195
386,-0.277405,0.597626,0.390395
387,0.037228,0.520567,0.542033
388,0.804464,0.403188,-0.258532
389,1.173987,0.457424,-0.351178
390,1.380304,0.263099,-0.118981
391,0.90677,0.220344,0.623351
392,0.570169,0.113984,0.080626
393,0.399239,-0.041077,-0.369049
394,-0.150414,0.331215,-0.138948
395,-0.394045,0.300041,-0.180677
396,-0.075269,-0.29992,-0.420771
397,0.189544,-0.737848,-0.609048
398,0.225824,-1.187426,-0.748007
399,0.102142,-1.344313,-0.54918
400,-0.008973,-1.264546,-0.353696
401,0.001077,-1.310572,-0.337711
402,-0.020211,-1.346326,-0.257734
403,-0.018601,-1.135797,-0.023297
404,-0.009739,1.008751,1.007738
405,-0.027755,1.013973,1.010462
406,0.267026,2.23678,0.496422
407,-0.015428,-0.398011,0.31304
408,-0.005464,-0.400328,0.3102
409,0.808911,0.061523,0.450707
410,1.465225,1.180597,-0.323587
411,1.474233,1.17604,-0.31766
412,0.129074,-1.637239,-0.418999
413,0.188006,-1.627292,0.011531
414,0.028116,-1.374717,-0.902527
415,0.232418,-0.604899,-1.161484
416,0.753698,0.41949,-0.43482
417,0.699635,0.439347,-0.362354
418,0.085052,0.945485,-0.017083
419,-0.219054,0.321608,0.015397
420,-0.190904,-0.085862,0.065175
421,-0.074303,-0.508259,0.053491
422,-0.067586,-0.529325,-0.06353
423,-0.062402,-0.457167,-0.193155
424,-0.115115,-0.320491,-0.073848
425,0.053471,-0.116854,0.883602
426,0.10399,0.045068,0.802256
427,-0.259542,0.116009,-0.02315
428,-0.351756,0.065278,-0.127568
429,-0.341048,0.068089,0.01517
430,-0.067914,0.232289,0.592321
431,-0.157294,0.568828,-0.18504
432,-0.2204,0.71764,-0.256422
433,0.112419,0.59409,0.685125
434,0.201299,0.665641,0.531253
435,0.007872,0.640566,0.245763
436,-0.293868,0.395095,0.484484
437,-0.230415,0.252184,0.556023
438,0.123297,0.138234,0.398554
439,0.645176,0.291733,-0.163735
440,0.991535,0.464294,-0.306069
441,1.132165,0.235904,0.155322
442,0.732717,0.320002,0.4938
443,0.532635,0.272562,0.054232
444,0.333761,-0.10253,-0.549765
445,-0.010799,0.137469,-0.29477
446,-0.348899,0.309912,-0.100332
447,-0.112034,-0.19898,-0.326456
448,0.225078,-0.61846,-0.411169
449,0.270374,-1.01661,-0.585373
450,0.195966,-1.183775,-0.543529
451,0.024397,-1.146708,-0.383508
452,0.043506,-1.247001,-0.300012
453,0.03377,-1.24224,-0.310167
454,0.081964,-1.033084,-0.015017
455,0.129051,-0.092344,0.464921
456,0.095247,-0.086501,0.480794
457,0.23195,2.655721,1.029797
458,0.079001,1.40784,0.216726
459,-0.07018,-0.422729,0.160659
460,-0.073982,-1.111666,0.752681
461,0.554996,0.333196,0.112838
462,1.142408,0.804021,-0.398785
463,1.894798,3.074521,0.477597
464,-0.016343,-2.008172,-0.405137
465,-0.014854,-2.208263,0.209961
466,-0.065703,-1.636971,-1.38402
467,0.386844,-0.665785,-0.922183
468,0.68002,-0.18477,-0.75315
469,0.944408,1.238074,0.025745
470,0.027244,1.254144,-0.043466
471,-0.318916,0.605592,0.038315
472,-0.196846,-0.498537,0.034662
473,-0.181615,-0.493008,-0.025144
474,-0.106914,-0.448222,-0.158287
475,-0.03962,-0.387125,-0.011454
476,-0.055067,-0.416913,0.406217
477,0.248468,-0.222616,0.726636
478,0.060303,0.03622,0.503892
479,-0.294378,0.211327,0.185891
480,-0.444881,0.193692,0.162521
481,-0.217263,0.313862,0.626647
482,0.00188,0.287226,0.273187
483,-0.114629,0.554467,-0.243747
484,-0.110022,0.795456,0.040236
485,0.04794,0.908851,0.210405
486,0.292726,1.227546,0.264366
487,0.424496,0.491044,0.918638
488,0.404585,-0.060572,0.823108
489,0.634551,0.013902,0.176483
490,0.850516,0.033947,-0.156578
491,1.039631,0.112527,-0.053759
492,0.924547,0.283219,0.14092
493,0.334471,0.156085,0.142788
494,0.168713,0.157362,-0.553731
495,0.191227,0.150926,-0.586627
496,-0.352329,0.114778,-0.175922
497,0.014955,-0.474156,-0.346696
498,0.044001,-0.47764,-0.377272
499,0.112271,-1.098459,-0.44666
500,0.006806,-1.251742,-0.381448
501,0.021265,-1.250897,-0.398103
502,-0.021692,-1.041272,-0.305992
503,-0.017467,-1.026766,-0.262809
504,-0.034487,-1.005275,-0.116577
505,-0.083909,-0.867941,0.398875
506,-0.166431,0.20225,1.127105
507,0.055616,2.327195,0.952925
508,0.375189,1.796484,0.289986
509,-0.079499,-0.873556,0.549705
510,0.12463,-1.385154,0.754317
511,0.612796,-0.524522,0.553843
512,2.290257,0.864164,0.0585
513,2.008361,2.623484,0.634414
514,-0.552416,-0.650955,-0.754673
515,-0.052218,-1.305126,-0.575855
516,-0.137619,-1.121933,-1.273106
517,0.130397,-0.612288,-0.924623
518,0.456091,-0.209566,-0.619266
519,0.783285,0.842688,-0.124216
520,0.132466,1.208885,0.212461
521,-0.20223,0.636571,0.234376
522,-0.085605,-0.493831,0.117553
523,-0.138072,-0.573764,0.069289
524,-0.13327,-0.435541,-0.165132
525,-0.093477,-0.290183,-0.118942
526,-0.031121,-0.380209,0.655957
527,0.124854,-0.089871,0.863825
528,-0.02207,0.102149,0.608014
529,-0.34732,0.136186,0.092821
530,-0.405509,0.126231,0.224866
531,-0.36215,0.204417,0.445121
532,0.009328,0.429408,0.353619
533,-0.091188,0.593857,-0.006191
534,-0.088906,0.640486,0.155592
535,0.157195,0.839723,0.400141
536,-0.004516,0.774409,0.193993
537,-0.177886,0.844303,0.090396
538,-0.089686,0.399971,0.737846
539,0.651377,0.266229,0.134036
540,0.831587,0.407436,-0.339671
541,1.083238,0.250478,-0.086665
542,1.025922,0.243962,0.547503
543,1.049523,0.232542,0.523784
544,0.374041,-0.078336,-0.485655
545,-0.024897,-0.037727,-0.451267
546,-0.002444,-0.045981,-0.457127
547,-0.240307,-0.129657,-0.302789
548,0.097,-0.623496,-0.382381
549,0.118968,-0.624256,-0.419231
550,0.177909,-1.041335,-0.579205
551,-0.085788,-1.157469,-0.329935
552,-0.096666,-1.103287,-0.325772
553,-0.067721,-1.101431,-0.323485
554,-0.002148,-1.119454,-0.157302
555,-0.007007,-1.03734,-0.068453
556,0.057293,-0.382796,0.330254
557,0.07669,2.232071,1.263245
558,0.129321,2.487693,0.778097
559,-0.020388,0.702582,0.142723
560,0.125861,-0.758215,0.713971
561,0.411602,-0.669784,0.829951
562,0.695717,0.243086,0.696268
563,1.114568,1.815053,-0.025863
564,0.385475,0.595352,-0.356534
565,0.383328,-2.011935,0.105202
566,-0.041102,-1.296425,-1.235765
567,-0.0067,-0.979022,-1.626835
568,0.679898,0.118513,-0.890319
569,0.643745,0.995812,0.018046
570,0.26353,1.033595,0.018005
571,-0.159558,0.472513,0.003683
572,-0.115484,-0.181953,-0.044519
573,-0.095898,-0.427869,0.013074
574,-0.110143,-0.459858,0.034759
575,-0.172621,-0.418983,-0.06235
576,-0.22622,-0.23647,-0.006713
577,-0.105955,-0.257496,0.931098
578,0.188122,-0.0493,0.790046
579,0.099976,0.016785,0.512651
580,-0.131257,0.096156,0.149104
581,-0.285637,0.084045,0.228123
582,-0.207192,0.215107,0.717808
583,-0.068903,0.397819,0.281537
584,-0.307051,0.560523,-0.147249
585,-0.281242,0.638918,0.315294
586,0.21848,0.548763,0.635976
587,0.179464,0.594651,0.440537
588,0.094311,0.568391,0.358784
589,-0.434044,0.510908,0.27525
590,-0.106312,0.556413,0.453597
591,0.244694,0.4788,0.351994
592,0.865959,0.44078,-0.303313
593,1.315822,0.376772,-0.126482
594,1.197764,0.078293,0.600092
595,0.546544,0.125881,0.171681
596,0.288838,-0.128045,-0.895663
597,0.109074,0.015753,-0.630944
598,-0.473442,0.311244,-0.051981
599,-0.10309,-0.194758,-0.289477
600,-0.072816,-0.201573,-0.310941
601,0.239889,-1.003644,-0.62997
602,0.134979,-1.219419,-0.498938
603,0.14701,-1.215586,-0.531428
604,-0.086128,-1.291681,-0.335572
605,-0.05303,-1.417302,-0.183283
606,-0.046396,-1.345366,-0.120213
607,-0.034925,-0.867783,0.103804
608,0.02671,1.942536,1.530394
609,0.223805,3.175975,1.189941
610,0.069682,1.605854,0.361661
611,0.065893,-1.028803,0.609994
612,0.356999,-1.301804,0.836839
613,0.914881,-0.069047,0.501046
614,1.598534,1.94222,0.104639
615,0.641006,1.358004,-0.364566
616,0.006641,-1.657703,0.05573
617,-0.028995,-1.462399,-0.36979
618,-0.05353,-1.016009,-1.366873
619,0.885939,0.307953,-0.397461
620,0.790494,0.773634,-0.199397
621,0.314176,1.087384,-0.002733
622,-0.174364,0.665133,0.000237
623,-0.343995,-0.267493,0.058165
624,-0.148852,-0.539889,0.139393
625,-0.066189,-0.483023,0.013079
626,-0.093105,-0.475861,-0.208524
627,-0.090826,-0.387249,0.431951
628,0.039086,-0.076094,0.937826
629,0.067445,0.063998,0.744312
630,-0.081582,0.123084,0.224009
631,-0.217495,0.135377,0.012906
632,-0.317699,0.163824,0.58459
633,-0.160985,0.348175,0.650556
634,-0.199471,0.55825,-0.053095
635,-0.301206,0.771274,-0.011391
636,0.157942,0.593404,0.846726
637,0.308558,0.605383,0.490852
638,0.003138,0.5941,0.338684
639,-0.486243,0.538461,0.250595
640,-0.3588,0.428457,0.419461
641,0.524505,0.442012,0.068144
642,0.727305,0.477229,-0.219932
643,1.134325,0.52195,-0.250899
644,1.043771,0.14105,0.688187
645,0.754676,0.195229,0.655522
646,0.361235,-0.117645,-0.794797
647,-0.143626,0.239651,-0.330276
648,-0.360204,0.427569,0.005723
649,-0.42337,0.163473,-0.192458
650,0.109615,-0.564122,-0.419354
651,0.234379,-0.742731,-0.526104
652,0.260569,-1.122931,-0.71462
653,0.005284,-1.260027,-0.42252
654,-0.04496,-1.266111,-0.375105
655,-0.046303,-1.382153,-0.291314
656,0.00652,-1.30647,-0.134747
657,0.039197,-0.572668,0.159569
658,0.011246,0.001368,0.631721
659,0.436568,2.960452,1.171075
660,-0.009019,1.241661,0.176352
661,-0.261731,-0.597937,0.232564
662,-0.145901,-1.243181,0.822031
663,0.305461,0.009451,0.274989
664,1.810188,1.480995,-0.615979
665,2.550451,2.953762,0.099184
666,0.157693,-1.86296,-0.617141
667,0.087487,-2.363651,0.113762
668,-0.00598,-1.501328,-1.643736
669,0.271949,-0.844038,-0.909235
670,0.796524,0.036451,-0.83415
671,0.874165,1.551258,-0.28189
672,0.225235,1.712674,-0.035602
673,-0.607634,0.321068,0.198301
674,-0.534313,-0.538662,0.130713
675,-0.233181,-0.567132,-0.04804
676,-0.019941,-0.561496,-0.04541
677,0.027597,-0.551883,0.221335
678,0.093923,-0.4151,0.602824
679,0.278149,-0.021758,0.990315
680,-0.13162,0.145723,0.322454
681,-0.285446,0.209746,-0.055754
682,-0.268312,0.051429,0.204272
683,-0.151052,0.309261,0.590141
684,-0.196333,0.430189,0.230109
685,-0.280567,0.777496,0.271395
686,0.159106,0.702312,0.636536
687,0.19377,0.773668,0.396974
688,-0.159764,0.811906,0.313035
689,-0.209047,0.599037,0.485977
690,-0.182744,0.557501,0.421481
691,0.636271,0.275419,0.438888
692,1.067482,0.411568,-0.362254
693,1.084366,0.39666,-0.42257
694,1.363794,0.091226,0.592936
695,0.627313,0.094488,0.250001
696,0.534449,-0.013494,-0.185431
697,0.18488,-0.200783,-0.905632
698,-0.502804,0.346307,-0.032589
699,-0.512616,0.230799,-0.102057
700,-0.115376,-0.406063,-0.346316
701,0.261669,-0.947274,-0.664628
702,0.238879,-1.193372,-0.635493
703,-0.086939,-1.291049,-0.319117
704,-0.095195,-1.2698,-0.308061
705,-0.066309,-1.282922,-0.259444
706,0.008019,-1.190003,-0.05664
707,0.002073,-0.900194,0.10173
708,-0.048885,0.382279,1.035385
709,0.194843,1.700114,0.516996
710,0.061591,0.474401,0.348168
711,-0.046315,-0.412318,0.372818
712,0.656289,-1.042442,0.765187
713,1.029815,0.340925,-0.087261
714,1.861461,1.895499,0.11105
715,0.097852,0.239774,-0.471804
716,0.092523,-1.837965,0.124339
717,0.027836,-1.505628,-0.879993
718,0.050602,-1.011067,-1.239062
719,0.430075,-0.409358,-0.865139
720,0.813183,0.712037,-0.304446
721,0.557622,1.252678,-0.098532
722,0.141801,1.15418,0.010033
723,-0.441932,0.011319,0.167862
724,-0.117532,-0.570065,0.210039
725,0.076015,-0.65163,0.048887
726,0.114031,-0.594355,-0.087361
727,0.025098,-0.521474,0.021861
728,-0.093628,-0.307559,0.334156
729,-0.021233,-0.030077,0.925123
730,-0.09128,0.046691,0.657444
731,-0.288659,0.090173,-0.043973
732,-0.24939,0.162927,0.176305
733,-0.002811,0.235072,0.591379
734,-0.145977,0.487125,-0.163413
735,-0.194293,0.693527,-0.151283
736,-0.114859,0.727277,0.651516
737,0.069606,0.735637,0.42325
738,0.027911,0.702691,0.381165
739,-0.237912,0.619146,0.375512
740,-0.044049,0.377211,0.620359
741,0.304242,0.301026,0.473365
742,0.825267,0.496103,-0.148693
743,1.152925,0.384432,-0.151501
744,1.387331,0.222093,0.179572
745,1.05961,0.311572,0.734709
746,0.459865,-0.040808,-0.322109
747,0.048976,0.004239,-0.433009
748,-0.457588,0.209767,-0.040178
749,-0.325535,-0.067382,-0.210639
750,-0.121144,-0.338394,-0.320662
751,0.237528,-0.936701,-0.528395
752,0.180313,-1.256882,-0.549051
753,0.005728,-1.323338,-0.337241
754,-0.030557,-1.270022,-0.278931
755,-0.060004,-1.342761,-0.210882
756,-0.058666,-1.286957,-0.091013
757,-0.080286,-0.844276,0.136107
758,-0.152377,0.525787,0.961386
759,0.199906,2.693504,1.227311
760,0.122368,1.646958,0.35897
761,0.065706,-0.209932,0.414844
762,-0.049015,-1.276943,0.617169
763,0.265727,-0.927895,0.778445
764,0.905437,0.106423,-0.433001
765,2.638457,2.089702,0.496483
766,0.122924,0.786748,-0.009661
767,-0.344568,-1.563579,-0.198949
768,-0.042311,-1.525036,-0.763771
769,0.01737,-1.0765,-1.145892
770,0.636614,-0.217503,-0.660639
771,0.791622,0.239842,-0.549039
772,0.769194,1.263439,-0.183936
773,-0.365979,0.638035,0.333573
774,-0.517172,-0.012076,0.38103
775,-0.201995,-0.677566,0.084214
776,-0.020789,-0.64115,-0.030361
777,0.00184,-0.638312,-0.069329
778,0.065565,-0.292583,0.179531
779,0.089099,-0.068255,1.35662
780,0.00959,0.185979,1.141678
781,-0.229126,0.234798,0.340079
782,-0.336883,0.107899,0.121101
783,-0.329258,0.195249,0.421378
784,-0.168641,0.473288,0.84498
785,-0.173106,0.611134,-0.067059
786,-0.126543,0.678539,0.126531
787,0.148324,0.593952,0.936854
788,0.070379,0.708888,0.41683
789,-0.112649,0.663173,0.342421
790,-0.400238,0.52779,0.330011
791,0.202534,0.597098,0.469522
792,0.520277,0.52806,0.235007
793,1.067023,0.609598,-0.341437
794,1.370578,0.485813,-0.174102
795,1.370448,0.208225,0.516816
796,0.402984,-0.058552,-0.639283
797,0.243594,-0.0163,-0.810062
798,-0.057165,0.164773,-0.322923
799,-0.444882,0.177496,-0.179467
800,-0.301486,-0.145962,-0.300408
801,0.065671,-0.64489,-0.420264
802,0.1888,-1.328675,-0.611245
803,0.092381,-1.396078,-0.486131
804,-0.027807,-1.340597,-0.36917
805,-0.023469,-1.390954,-0.298757
806,0.01969,-1.389713,-0.151465
807,0.024057,-1.112751,0.036678
808,-0.016189,-0.010235,0.675961
809,0.06292,2.402079,1.697832
810,0.259896,2.361243,0.441673
811,0.046754,0.033846,0.275839
812,0.27858,-0.877846,0.905342
813,0.96605,0.053749,0.99319
814,1.220566,1.326606,-0.311567
815,0.016359,0.960226,-0.585642
816,0.268049,-1.431176,-0.209668
817,0.232485,-1.378797,-0.1482
818,-0.035845,-0.876545,-1.438589
819,0.353633,-0.481351,-0.902214
820,0.752597,0.41652,-0.176057
821,0.282071,0.663394,0.008555
822,0.140482,0.622312,-0.045983
823,-0.110068,0.296847,-0.064128
824,-0.114495,-0.407931,0.09393
825,-0.100171,-0.43305,0.182192
826,-0.092542,-0.385621,0.0087
827,-0.241297,-0.256937,0.166329
828,-0.270256,-0.253355,0.544801
829,-0.008993,-0.185491,0.847715
830,0.144031,0.047761,0.515975
831,0.005785,0.111083,0.282053
832,-0.25106,0.111408,0.199416
833,-0.199331,0.337834,0.708439
834,-0.173164,0.423881,0.4355
835,-0.370839,0.672878,-0.049209
836,-0.156396,0.661035,0.596938
837,0.160639,0.791524,0.454885
838,-0.162675,0.8551,0.253848
839,-0.232982,0.800519,0.306919
840,-0.155712,0.651084,0.458856
841,0.602427,0.242817,0.412944
842,0.926551,0.404002,-0.296448
843,1.005328,0.40248,-0.355155
844,1.212066,0.138474,0.383873
845,0.632815,0.274623,0.607658
846,0.535358,0.165443,0.256429
847,0.080347,-0.066451,-0.869522
848,-0.505874,0.347073,0.096089
849,-0.473571,0.32192,-0.118921
850,-0.010723,-0.532762,-0.35998
851,0.19033,-0.921184,-0.558327
852,0.262552,-1.055475,-0.65078
853,0.081394,-1.345602,-0.435769
854,0.003864,-1.207108,-0.359105
855,-0.029467,-1.22307,-0.282683
856,0.00314,-1.19902,-0.108106
857,0.04116,-0.832491,0.159741
858,0.028308,0.425527,0.937033
859,0.072448,2.451662,1.286972
860,0.128975,0.549968,0.232942
861,-0.032353,-0.208525,0.366683
862,0.222663,-1.103837,0.897932
863,1.05733,0.45238,0.414183
864,1.521548,1.239305,-0.306808
865,0.012788,-0.112271,-0.867773
866,0.135181,-1.871649,0.066538
867,-0.010326,-1.631943,-0.031413
868,-0.146956,-1.085128,-1.572056
869,0.454412,-0.239732,-0.911859
870,0.780154,0.376669,-0.314957
871,0.566606,1.081359,0.053995
872,0.136154,0.681639,-0.067195
873,-0.062983,0.375229,-0.028108
874,-0.162912,-0.309024,0.034921
875,0.048382,-0.606098,0.181783
876,0.060827,-0.570284,0.104044
877,0.025716,-0.394425,-0.127144
878,-0.189428,-0.222818,0.223155
879,-0.172721,-0.209039,0.565708
880,0.096093,-0.017575,0.992682
881,-0.157935,0.255152,0.375787
882,-0.33735,0.289066,0.160936
883,-0.390455,0.398995,0.744726
884,-0.235104,0.451765,0.904643
885,-0.129777,0.544591,0.220266
886,-0.062066,0.611096,0.33656
887,0.078616,0.553863,0.667271
888,0.130067,0.696241,0.539505
889,-0.321341,0.599756,0.288239
890,-0.3076,0.584926,0.382032
891,-0.103597,0.581733,0.467462
892,0.695632,0.372788,0.102562
893,0.845794,0.393796,-0.229178
894,1.40059,0.123411,0.035127
895,1.066217,0.062148,0.625646
896,0.581448,0.059503,0.304789
897,0.274624,-0.104264,-0.850538
898,-0.141961,0.256533,-0.181493
899,-0.474262,0.324907,0.120342
900,-0.131977,-0.173646,-0.355236
901,0.143927,-0.648044,-0.427228
902,0.177291,-1.019564,-0.633383
903,0.115179,-1.298065,-0.502942
904,0.005574,-1.300187,-0.348279
905,-0.006336,-1.347533,-0.226802
906,-0.007715,-1.327488,-0.135095
907,-0.008085,-0.960679,0.168235
908,-0.062472,0.424365,0.931018
909,-0.084477,0.431685,0.927702
910,-0.018495,1.564497,0.351537
911,-0.125009,-0.281341,0.504504
912,-0.112418,-0.284866,0.504194
913,0.749509,-0.799238,0.903298
914,1.923809,1.30982,-0.29165
915,1.933885,1.311733,-0.313353
916,-0.123347,-0.779254,-0.900247
917,0.057181,-1.330351,-0.401843
918,-0.026458,-1.090825,-1.369368
919,0.111054,-0.752426,-1.171461
920,0.875083,0.613216,-0.254097
921,0.695046,0.93419,-0.125514
922,0.278295,1.079216,-0.010657
923,-0.158668,0.593218,0.087111
924,-0.271141,-0.194258,0.16051
925,-0.012061,-0.594843,0.114985
926,-0.039426,-0.604546,0.015416
927,-0.059558,-0.648152,-0.077255
928,-0.049069,-0.234035,0.477357
929,-0.036974,-0.108905,0.882604
930,-0.026094,0.193209,0.918355
931,-0.29988,0.133247,0.06697
932,-0.34569,0.115488,0.235931
933,-0.273523,0.356364,0.925116
934,-0.073753,0.472419,0.314129
935,-0.154283,0.645521,-0.029652
936,0.011336,0.730455,0.737486
937,0.166524,0.633787,0.719274
938,0.025634,0.732363,0.320179
939,-0.292769,0.59331,0.345855
940,-0.302153,0.554644,0.456504
941,0.298638,0.53594,0.303561
942,0.66664,0.530319,-0.22677
943,1.091702,0.574544,-0.252006
944,1.512958,0.245117,0.365801
945,0.936587,0.215503,0.698626
946,0.666666,-0.002536,0.060073
947,0.207628,-0.145643,-0.891916
948,-0.390306,0.324536,0.052555
949,-0.439934,0.191467,-0.22534
950,0.053134,-0.585386,-0.438464
951,0.218519,-0.762586,-0.54708
952,0.211795,-1.180875,-0.727072
953,-0.079678,-1.369686,-0.406735
954,-0.131533,-1.354366,-0.399036
955,-0.135769,-1.454371,-0.249539
956,-0.091181,-1.441946,-0.082568
957,-0.045635,-0.903091,0.123849
958,0.039686,0.295648,0.912641
959,0.524592,3.167598,0.825047
960,0.193258,1.829741,0.352808
961,-0.187615,-0.545037,0.237489
962,0.65992,-0.411752,0.998695
963,0.711929,0.167126,0.723431
964,0.791505,1.272812,-0.258706
965,0.445189,-0.688331,-0.627818
966,0.515036,-1.599746,0.109986
967,0.22856,-1.329629,-0.108699
968,0.1142,-0.741254,-1.174103
969,0.462016,-0.099259,-0.711884
970,0.58055,0.840107,0.092097
971,0.370467,0.869177,0.204839
972,0.084575,0.613272,-0.140245
973,-0.111068,-0.127945,-0.036555
974,-0.125173,-0.347403,-0.008227
975,-0.118148,-0.445184,0.072106
976,-0.175192,-0.345159,-0.166572
977,-0.286055,-0.353585,0.073627
978,-0.137134,-0.399791,0.759797
979,0.249424,-0.050568,0.834332
980,0.133752,0.268084,0.730238
981,-0.238152,0.197578,0.139564
982,-0.328928,0.111668,0.296648
983,-0.108682,0.289775,0.991799
984,-0.122354,0.474107,0.185467
985,-0.455634,0.771875,-0.294814
986,-0.285049,0.713812,0.563769
987,0.082976,0.771133,0.522844
988,-0.22488,0.764527,0.363823
989,-0.240797,0.671511,0.367941
990,-0.164153,0.562521,0.41695
991,0.63064,0.269998,0.335164
992,1.067976,0.485484,-0.312651
993,1.172723,0.305382,-0.157454
994,0.818511,0.227046,0.741324
995,0.54833,0.169105,0.249777
996,0.424477,0.016953,-0.308856
997,-0.164548,0.196089,-0.281112
998,-0.52157,0.344528,-0.016606
999,-0.388022,0.095115,-0.228935
1000,-0.106585,-0.429222,-0.384647
1001,0.296139,-1.007859,-0.619404
1002,0.337019,-1.174947,-0.67832
1003,0.153058,-1.35672,-0.479253
1004,-0.018919,-1.296813,-0.318176
1005,-0.02585,-1.293545,-0.325584
1006,0.034314,-1.34444,-0.110359
1007,0.039327,-0.987545,0.002623
1008,0.080235,0.167697,0.804965
1009,0.357522,2.750627,1.523888
1010,0.104295,2.020399,0.556187
1011,-0.130262,-0.305716,0.274761
1012,0.017634,-1.153659,0.780664
1013,0.669658,0.319768,0.455635
1014,1.056126,1.081299,-0.202074
1015,1.369554,2.501954,-0.023787
1016,0.290293,-1.839092,0.138
1017,0.249066,-1.828714,0.302507
1018,0.195707,-0.785202,-1.19122
1019,0.394317,-0.424979,-1.030894
1020,0.574971,0.01585,-0.794523
1021,0.216116,1.225796,0.042464
1022,0.019242,1.101392,0.023141
1023,-0.321389,0.151651,0.064764
1024,-0.145505,-0.511435,0.133431
1025,-0.09094,-0.569216,0.127693
1026,0.027196,-0.571038,-0.067888
1027,-0.081204,-0.419172,-0.080884
1028,-0.093558,-0.3,0.20464
1029,0.121527,0.122162,1.259153
1030,-0.021562,0.203152,0.611996
1031,-0.19346,0.146012,-0.061374
1032,-0.340958,-0.01654,0.186654
1033,-0.179455,0.249392,1.077731
1034,-0.180685,0.442008,0.246332
1035,-0.406959,0.774293,-0.203952
1036,-0.15486,0.781439,0.716076
1037,0.197155,0.63427,0.73467
1038,0.07047,0.605469,0.385761
1039,-0.319838,0.537378,0.396
1040,-0.301757,0.368209,0.364356
1041,0.332492,0.473077,0.322946
1042,1.063687,0.659107,-0.368264
1043,1.251247,0.54037,-0.254828
1044,1.394344,0.266987,0.086105
1045,0.849663,0.251544,0.63272
1046,0.427266,-0.116174,-0.63202
1047,0.281548,-0.134582,-1.045317
1048,-0.524366,0.38045,0.068614
1049,-0.34179,-0.06039,-0.211232
1050,-0.146298,-0.337863,-0.33171
1051,0.182739,-0.767139,-0.542658
1052,0.160739,-1.293628,-0.61663
1053,0.048787,-1.373307,-0.513801
1054,-0.071339,-1.346589,-0.370884
1055,-0.031328,-1.461909,-0.21377
1056,-0.052358,-1.46015,-0.20218
1057,-0.026861,-0.976028,0.069803
1058,0.233761,1.337095,1.461604
1059,0.566661,2.649465,1.431881
1060,0.032251,1.966043,0.448225
1061,-0.157836,-0.796768,0.499416
1062,0.112969,-1.125818,0.83483
1063,0.69838,-0.196023,0.750454
1064,1.863774,1.756527,-0.069294
1065,1.242769,1.981148,0.066811
1066,0.161347,-1.440622,0.029865
1067,0.046306,-1.230764,-0.854926
1068,0.074034,-0.971304,-1.589534
1069,0.4102,-0.263244,-0.939869
1070,0.628285,0.284353,-0.393124
1071,0.465184,0.993623,0.050512
1072,-0.124335,0.431413,-0.040182
1073,-0.22494,-0.008476,0.0997
1074,-0.17005,-0.306001,0.192306
1075,-0.100937,-0.621145,0.068405
1076,-0.023106,-0.516201,-0.137515
1077,-0.100224,-0.326378,-0.006411
1078,-0.15832,-0.164347,1.094272
1079,0.140541,0.007815,1.148669
1080,-0.032681,0.074575,0.353786
1081,-0.232023,0.094421,-0.100762
1082,-0.272736,0.132092,0.351865
1083,-0.187061,0.300481,1.0087
1084,-0.217794,0.46349,0.134082
1085,-0.274261,0.738546,-0.029034
1086,0.06133,0.703778,0.77285
1087,0.234813,0.678334,0.547007
1088,0.040701,0.682815,0.347908
1089,-0.237109,0.682815,0.30286
1090,0.011013,0.515483,0.641239
1091,0.926672,0.434662,0.022721
1092,1.021795,0.44655,-0.349385
1093,1.370631,0.269981,-0.090935
1094,0.945621,0.180423,0.699143
1095,0.695406,0.131972,0.524844
1096,0.463864,-0.053825,-0.270592
1097,-0.267534,0.324094,-0.195998
1098,-0.513964,0.530408,0.108371
1099,-0.439354,0.057586,-0.220778
1100,0.109545,-0.640752,-0.434884
1101,0.255788,-0.833461,-0.61986
1102,0.250048,-1.27439,-0.708783
1103,-0.020095,-1.380474,-0.334927
1104,-0.048481,-1.312629,-0.315184
1105,-0.011963,-1.38887,-0.185251
1106,0.054758,-1.194091,-0.009434
1107,0.021935,-0.858203,0.163599
1108,0.001357,0.568484,1.083205
1109,0.348949,2.892389,0.67721
1110,0.27122,1.410346,0.381114
1111,0.545044,-1.189623,0.995425
1112,0.925795,-0.515148,1.018696
1113,0.976643,0.791179,-0.000491
1114,0.913911,1.774158,0.036066
1115,0.387468,1.005375,-0.601921
1116,0.205232,-1.472707,0.108503
1117,-0.004227,-1.080395,-1.126097
1118,-0.129885,-0.977683,-1.319463
1119,0.448328,-0.022176,-0.728306
1120,0.501489,0.717536,-0.062245
1121,0.269669,1.044189,0.040689
1122,-0.032778,0.715992,0.044288
1123,-0.189798,-0.153274,0.153602
1124,-0.081689,-0.60541,0.080404
1125,0.057003,-0.682114,0.18559
1126,0.028497,-0.538401,-0.114527
1127,-0.038867,-0.344825,-0.072838
1128,-0.08564,-0.236661,0.606979
1129,0.09592,0.042599,1.013493
1130,0.026768,0.196654,0.638566
1131,-0.21052,0.186099,0.163488
1132,-0.261195,0.109561,0.674262
1133,-0.07468,0.284629,0.618074
1134,-0.139312,0.392076,0.148787
1135,-0.383189,0.787434,-0.266249
1136,0.13548,0.659385,0.861729
1137,0.258452,0.717627,0.642313
1138,0.097133,0.688974,0.378508
1139,-0.324947,0.6525,0.513342
1140,-0.212678,0.537752,0.647404
1141,0.352225,0.287469,0.50704
1142,1.009906,0.495247,-0.350382
1143,1.191592,0.489479,-0.287521
1144,1.476088,0.104905,0.323913
1145,1.217298,0.073246,0.637966
1146,0.522659,0.098339,0.021611
1147,0.178696,-0.046028,-1.017714
1148,-0.455868,0.372012,0.160824
1149,-0.431911,0.182921,-0.195094
1150,-0.099716,-0.41555,-0.299577
1151,0.288697,-0.960477,-0.614673
1152,0.290095,-1.17616,-0.651687
1153,0.118269,-1.362278,-0.428395
1154,-0.041353,-1.223549,-0.280271
1155,-0.049991,-1.252756,-0.252084
1156,-0.043226,-1.208719,-0.04115
1157,-0.038983,-0.556529,0.308948
1158,-0.056077,1.048952,1.389116
1159,0.327751,2.743734,1.026658
1160,0.334211,2.09696,0.540045
1161,-0.016951,-0.636767,0.539242
1162,0.727526,-0.815671,1.014931
1163,1.122999,0.456879,0.420093
1164,1.624314,1.614369,0.008234
1165,0.168146,-0.917543,-0.988061
1166,0.310331,-1.750398,0.245545
1167,-0.072081,-1.060415,-1.112264
1168,0.207351,-0.447761,-1.122424
1169,0.496028,0.051328,-0.714659
1170,0.673352,0.724573,-0.177946
1171,0.256474,1.105774,-0.000847
1172,-0.095458,0.655182,0.005626
1173,-0.227929,0.243663,0.128221
1174,-0.056258,-0.541769,0.155962
1175,0.027757,-0.681489,0.182406
1176,0.074495,-0.670261,0.0819
1177,0.013253,-0.467303,0.160883
1178,-0.02521,-0.273725,0.644434
1179,0.025933,-0.099512,0.799039
1180,-0.006756,0.072921,0.506922
1181,-0.204716,0.099042,-0.049178
1182,-0.251447,0.144492,0.173028
1183,-0.23247,0.296269,0.956973
1184,-0.134137,0.44201,0.134772
1185,-0.26161,0.836834,-0.140861
1186,0.033962,0.78602,0.73524
1187,0.253029,0.715642,0.667582
1188,0.14081,0.60528,0.378811
1189,-0.239837,0.563863,0.520217
1190,-0.31302,0.397425,0.522546
1191,0.176838,0.363103,0.31223
1192,0.651513,0.450577,-0.141518
1193,1.1275,0.450498,-0.029069
1194,1.282145,0.299544,0.299426
1195,0.97089,0.281321,0.762052
1196,0.573017,-0.014611,-0.195726
1197,0.417418,-0.22264,-0.836744
1198,-0.046394,0.06164,-0.156903
1199,-0.359499,-0.020364,-0.170143
1200,-0.231044,-0.270012,-0.250711
1201,0.233739,-0.887275,-0.480431
1202,0.297052,-1.01152,-0.648448
1203,0.108801,-1.206271,-0.409439
1204,0.022798,-1.207633,-0.291715
1205,0.028525,-1.286977,-0.280961
1206,0.091278,-1.365658,-0.00663
1207,0.039343,-0.863959,0.216063
1208,-0.016103,0.607067,1.181726
1209,0.134357,3.485994,1.128728
1210,-0.031261,1.225519,0.392066
1211,-0.022632,-0.776994,0.508763
1212,0.368501,-1.535471,0.860178
1213,0.725234,-0.288966,0.404566
1214,1.641451,0.761837,-0.658391
1215,1.314901,2.5399,0.149433
1216,-0.275768,-1.031288,-0.220601
1217,-0.054538,-1.429016,-0.159054
1218,0.026464,-1.152829,-1.231103
1219,0.15361,-0.737086,-0.899758
1220,0.500725,0.0353,-0.58828
1221,0.515713,0.871078,-0.052477
1222,0.184429,1.343339,0.062366
1223,-0.324633,-0.054371,0.185792
1224,-0.221854,-0.391083,0.216598
1225,-0.049652,-0.63758,0.201695
1226,0.053512,-0.65904,0.000544
1227,0.041624,-0.544589,-0.019123
1228,0.036161,-0.278734,0.372404
1229,0.049563,0.082011,1.029049
1230,-0.017069,0.104822,0.755163
1231,-0.166252,0.150597,0.151108
1232,-0.291429,0.099528,0.148477
1233,-0.311816,0.327348,0.893605
1234,-0.065956,0.44097,0.318322
1235,-0.171496,0.669949,-0.098136
1236,-0.075769,0.682851,0.562399
1237,0.154646,0.836169,0.554021
1238,-0.045891,0.847195,0.175032
1239,-0.108648,0.786498,0.306569
1240,-0.06307,0.476681,0.748676
1241,0.593523,0.223138,0.214253
1242,0.758492,0.30898,-0.165279
1243,0.95109,0.343502,-0.239668
1244,1.168903,0.152753,0.543461
1245,0.823631,0.224381,0.665696
1246,0.413145,-0.046088,-0.374984
1247,0.216799,-0.127607,-0.950529
1248,-0.242875,0.179071,-0.051394
1249,-0.387497,-0.048979,-0.267857
1250,-0.033355,-0.545068,-0.291259
1251,0.138538,-0.703727,-0.456214
1252,0.107415,-1.364537,-0.427737
1253,0.026277,-1.36145,-0.327373
1254,-0.015808,-1.268214,-0.28506
1255,-0.024638,-1.218597,-0.11911
1256,0.006768,-1.178365,0.042408
1257,0.055635,-0.566416,0.272967
1258,0.084031,0.8055,1.06996
1259,0.178298,2.615954,1.090191
1260,0.024427,1.060362,0.28847
1261,-0.108548,-0.47916,0.521583
1262,0.499227,-0.642,1.043784
1263,1.037449,0.428092,0.551576
1264,1.53036,1.661957,-0.17161
1265,0.089761,-0.238307,-0.96367
1266,0.323751,-1.919603,0.314117
1267,0.046638,-1.367386,-0.501419
1268,0.208803,-0.627833,-1.083596
1269,0.451552,-0.248068,-0.836963
1270,0.781419,0.738614,-0.034905
1271,0.319675,1.023943,-0.017883
1272,0.140897,1.028428,0.048261
1273,-0.292741,0.038145,0.104747
1274,-0.19024,-0.399847,0.099741
1275,-0.139374,-0.477373,0.05472
1276,-0.078134,-0.464758,-0.191331
1277,-0.096002,-0.360694,0.256309
1278,-0.014169,-0.304434,1.0368
1279,0.250075,0.123431,1.280119
1280,-0.113655,0.148467,0.08221
1281,-0.196429,0.076053,-0.081945
1282,-0.090562,-0.014496,0.197682
1283,-0.142994,0.328981,0.702133
1284,-0.230489,0.493933,0.186849
1285,-0.416345,0.805182,-0.187384
1286,0.239442,0.58301,0.960844
1287,0.341514,0.622838,0.693449
1288,-0.027324,0.586459,0.299873
1289,-0.240846,0.645206,0.290268
1290,0.060295,0.514615,0.666119
1291,0.728551,0.370944,-0.046458
1292,0.861917,0.452701,-0.275701
1293,1.025502,0.434124,-0.262355
1294,1.326896,0.199498,0.518131
1295,0.70828,0.194749,0.636459
1296,0.64827,0.053239,0.260498
1297,0.036248,-0.041161,-0.496613
1298,-0.496456,0.38141,-0.015632
1299,-0.525676,0.281253,0.005134
1300,-0.037073,-0.565036,-0.297918
1301,0.261401,-0.794563,-0.580956
1302,0.247942,-1.028299,-0.662765
1303,0.008646,-1.351626,-0.382774
1304,-0.038647,-1.266102,-0.302047
1305,-0.039713,-1.320616,-0.296589
1306,-0.035259,-1.289986,-0.064664
1307,-0.050132,-0.80893,0.147857
1308,-0.017813,0.64504,1.161048
1309,0.234891,3.18971,1.315595
1310,0.059257,1.283118,0.351788
1311,-0.082915,-0.616338,0.403028
1312,0.311769,-1.218122,0.949336
1313,0.982937,0.444252,-0.003199
1314,1.476882,1.15763,-0.476651
1315,0.810786,2.298753,-0.020042
1316,0.058662,-1.372397,-0.245662
1317,0.172151,-1.669955,-0.193175
1318,-0.009788,-1.191446,-1.222445
1319,0.195665,-0.692062,-0.939583
1320,0.64924,0.144323,-0.160461
1321,0.619245,0.899458,0.261944
1322,0.383259,0.940122,-0.113752
1323,-0.141792,0.499092,-0.179128
1324,-0.396697,-0.343186,0.078202
1325,-0.122856,-0.441965,0.11116
1326,-0.082256,-0.399347,0.03911
1327,-0.151383,-0.350265,0.018197
1328,-0.023936,-0.378978,0.916107
1329,0.227155,-0.233445,1.203703
1330,0.225405,0.155208,0.824159
1331,-0.373597,0.111968,-0.015467
1332,-0.444766,0.095367,0.07948
1333,-0.125082,0.401241,0.872938
1334,-0.148835,0.48231,0.295618
1335,-0.190075,0.703157,0.052967
1336,0.182404,0.625601,0.798414
1337,0.245923,0.747038,0.467323
1338,-0.09301,0.830821,0.297302
1339,-0.226531,0.630661,0.519151
1340,0.176791,0.3258,0.600749
1341,0.667815,0.27028,0.158781
1342,1.00636,0.388803,-0.159438
1343,1.240194,0.266872,0.050188
1344,1.38999,0.145606,0.356566
1345,0.701652,0.088065,0.503664
1346,0.510594,-0.122448,-0.744255
1347,0.243284,-0.117112,-0.994495
1348,-0.545237,0.364433,0.036516
1349,-0.361002,-0.09015,-0.287031
1350,-0.197897,-0.423581,-0.264531
1351,0.233413,-0.977452,-0.563821
1352,0.185331,-1.337033,-0.55876
1353,0.097564,-1.428361,-0.434845
1354,-0.039104,-1.275591,-0.230183
1355,0.003792,-1.287211,-0.026834
1356,0.011737,-1.169422,0.043858
1357,0.04515,-0.349218,0.378917
1358,0.089308,2.794023,1.335437
1359,0.092056,2.855725,0.823092
1360,-0.049681,0.453583,0.280496
1361,0.382491,-0.894431,1.007513
1362,0.783402,-0.550846,1.077892
1363,1.193038,0.886617,0.385715
1364,1.089101,2.011168,-0.21288
1365,0.158062,-1.145452,-0.906274
1366,0.471169,-1.929903,0.3901
1367,0.04465,-1.304003,-1.145522
1368,0.132241,-0.802738,-1.230271
1369,0.679766,0.062002,-0.56356
1370,0.436628,1.000159,0.097054
1371,0.217628,0.944917,0.032747
1372,-0.088571,0.528112,-0.031413
1373,-0.131782,-0.370182,0.013859
1374,-0.107401,-0.418178,0.112995
1375,-0.036188,-0.409597,0.047785
1376,-0.145993,-0.30469,0.037467
1377,-0.094696,-0.315409,0.969249
1378,0.268353,-0.073245,1.141095
1379,0.24329,0.031994,0.951526
1380,-0.099474,0.17534,0.222811
1381,-0.256475,0.084488,0.143609
1382,-0.107622,0.254328,1.09248
1383,-0.061508,0.338064,0.758449
1384,-0.279165,0.682759,-0.050803
1385,0.009629,0.665606,0.684658
1386,0.213914,0.577054,0.822669
1387,0.060167,0.614568,0.435779
1388,-0.305178,0.663428,0.416477
1389,-0.377268,0.4791,0.383883
1390,0.13465,0.473939,0.390585
1391,0.753836,0.48681,0.029348
1392,0.914655,0.542968,-0.244458
1393,1.399955,0.242351,0.243558
1394,1.043187,0.193294,0.772973
1395,0.804548,0.17864,0.571683
1396,0.425558,-0.145062,-0.730575
1397,-0.016299,0.070944,-0.193559
1398,-0.398804,0.317888,0.070476
1399,-0.240291,-0.189946,-0.216241
1400,0.134665,-0.639647,-0.403056
1401,0.237159,-1.006413,-0.613138
1402,0.109601,-1.326015,-0.532997
1403,-0.034871,-1.319726,-0.266679
1404,-0.029692,-1.368481,-0.248336
1405,0.026774,-1.427387,-0.086746
1406,0.055424,-1.175565,0.030771
1407,0.014366,-0.403431,0.54858
1408,0.135839,1.810791,1.480042
1409,0.293077,3.015681,0.724838
1410,0.130101,0.140063,0.348051
1411,0.456057,-0.853553,0.85785
1412,1.306102,-0.106817,1.332105
1413,0.861474,1.290402,0.174528
1414,0.085861,0.109528,-1.253933
1415,0.485881,-1.628269,-0.082142
1416,0.304326,-1.165517,0.168621
1417,0.032672,-0.680814,-1.594153
1418,0.637938,0.308526,-0.457912
1419,0.589721,0.879639,0.020049
1420,0.085913,0.661023,-0.090928
1421,-0.088462,0.10546,0.011393
1422,-0.065828,0.132795,-0.041131
1423,0.076503,-0.294626,-0.029504
1424,0.030087,-0.395518,0.087225
1425,-0.015571,-0.411596,0.137663
1426,-0.17679,-0.225899,0.098272
1427,-0.242175,-0.238757,0.38563
1428,-0.067243,-0.216976,0.905027
1429,0.242102,0.074385,0.756776
1430,0.141657,0.130637,0.467303
1431,-0.127557,0.099343,0.113341
1432,-0.205441,0.340129,0.81594
1433,-0.214963,0.516863,0.396617
1434,-0.37488,0.797456,-0.158304
1435,-0.098718,0.702477,0.464789
1436,0.369683,0.566724,0.86168
1437,0.240458,0.591006,0.440947
1438,-0.13972,0.686962,0.449682
1439,-0.365333,0.518647,0.394072
1440,-0.004922,0.434174,0.550822
1441,0.540419,0.352827,0.186047
1442,0.842055,0.413085,-0.214646
1443,1.250828,0.32803,0.037648
1444,1.456209,0.168015,0.771457
1445,0.650709,-0.030935,0.325873
1446,0.496666,-0.128766,-0.290307
1447,0.148168,-0.082449,-0.766058
1448,-0.463326,0.34656,0.223444
1449,-0.403323,0.033171,-0.193636
1450,-0.083737,-0.490018,-0.320768
1451,0.151579,-0.907753,-0.550344
1452,0.187519,-1.229724,-0.649167
1453,0.018461,-1.342135,-0.359743
1454,-0.076014,-1.323589,-0.237833
1455,-0.041075,-1.445712,-0.072495
1456,0.010518,-1.300201,0.051554
1457,-0.039387,-0.391528,0.517488
1458,0.005767,1.707137,1.393555
1459,0.215107,2.477273,0.763717
1460,0.209645,0.379102,0.416456
1461,0.236939,-0.849197,0.794577
1462,1.001678,-0.445323,1.13206
1463,1.220044,1.016397,0.344354
1464,0.512458,1.394227,-0.186939
1465,0.465013,-1.727704,0.249594
1466,0.462559,-1.604927,0.431366
1467,-0.064355,-1.048213,-1.357671
1468,0.665431,0.384266,-0.529662
1469,0.688268,1.028994,0.014337
1470,0.407344,1.053341,0.030153
1471,-0.018661,0.509167,0.064445
1472,-0.038225,0.185288,-0.039988
1473,0.003634,-0.311252,0.073241
1474,-0.028534,-0.515344,0.21455
1475,-0.033265,-0.496603,0.056597
1476,-0.145956,-0.393568,-0.106011
1477,-0.120576,-0.286298,0.394254
1478,0.113333,0.052091,1.429884
1479,0.012022,0.273575,0.935426
1480,-0.216978,0.198052,0.099375
1481,-0.243529,0.033163,-0.032008
1482,-0.141521,0.190317,1.00174
1483,-0.100463,0.419137,0.602055
1484,-0.300335,0.707398,-0.129115
1485,-0.167481,0.822606,0.465946
1486,0.228514,0.598486,0.985908
1487,0.220377,0.679123,0.61008
1488,-0.253477,0.613116,0.413382
1489,-0.37169,0.493687,0.450866
1490,0.129594,0.490516,0.375035
1491,0.646648,0.526271,-0.14118
1492,0.970757,0.593106,-0.222243
1493,1.42462,0.257888,0.675158
1494,1.09043,0.258172,0.777164
1495,0.738708,0.049411,0.314641
1496,0.384763,-0.17165,-1.090798
1497,-0.222657,0.18222,-0.153258
1498,-0.523668,0.337361,-0.047396
1499,-0.293495,-0.208391,-0.224135
1500,0.116694,-0.692001,-0.423753
1501,0.280927,-1.070961,-0.728418
1502,-0.01069,-1.404286,-0.379824
1503,-0.073171,-1.398106,-0.320626
1504,-0.06425,-1.494446,-0.228828
1505,-0.028039,-1.302421,-0.015478
1506,-0.037049,-0.99119,0.073743
1507,0.08488,0.048358,0.715939
1508,0.36208,2.799413,1.570053
1509,0.427335,3.376915,1.066005
1510,-0.251289,-0.978413,0.457912
1511,-0.086132,-1.300056,0.69292
1512,0.292432,-0.62205,0.597
1513,2.024622,1.724658,-0.272315
1514,2.052966,3.607113,0.347499
1515,0.052275,-0.698789,-0.356202
1516,0.162961,-2.127325,-0.195021
1517,0.120891,-1.805625,-1.196957
1518,0.167184,-1.040462,-1.017991
1519,0.731565,0.347942,-0.490879
1520,0.720534,1.014783,-0.092551
1521,0.370293,1.489542,-0.115586
1522,-0.510195,-0.267817,0.318518
1523,-0.370898,-0.488479,0.288684
1524,-0.217077,-0.521299,0.167539
1525,0.018462,-0.523092,0.046062
1526,0.020461,-0.44417,0.28147
1527,0.12756,-0.321038,0.778469
1528,0.27459,-0.045085,0.962321
1529,-0.180491,0.178792,0.238312
1530,-0.323161,0.271402,0.080332
1531,-0.376785,0.241783,0.484322
1532,-0.09635,0.271912,0.942186
1533,-0.063782,0.442792,0.086475
1534,-0.170835,0.759699,-0.037042
1535,0.071257,0.662412,0.843054
1536,0.217524,0.605843,0.750661
1537,-0.016927,0.605284,0.480465
1538,-0.365622,0.484147,0.383956
1539,-0.214425,0.441812,0.427336
1540,0.434675,0.507901,0.311187
1541,0.853572,0.541113,-0.180915
1542,1.255024,0.429163,-0.061528
1543,1.442723,0.139694,0.646431
1544,0.808132,0.180746,0.586353
1545,0.580431,-0.016606,-0.12019
1546,0.243402,0.000243,-0.802833
1547,-0.42451,0.343324,0.168147
1548,-0.413423,0.085421,-0.094292
1549,-0.102775,-0.421779,-0.323436
1550,0.233436,-1.022684,-0.621239
1551,0.228237,-1.19931,-0.607882
1552,0.054027,-1.361032,-0.401789
1553,-0.016861,-1.394237,-0.206803
1554,-0.027624,-1.45008,-0.058525
1555,-0.030712,-1.163432,0.088161
1556,-0.073615,-0.764247,0.314828
1557,0.111975,2.038736,1.492842
1558,0.170001,2.432004,0.793062
1559,0.02472,0.221533,0.293879
1560,0.037225,-0.506813,0.448675
1561,0.867917,-0.446759,0.956855
1562,0.919,0.245875,0.552677
1563,1.479583,1.428022,-0.335933
1564,0.410567,-1.216246,-0.333904
1565,0.475554,-1.71445,0.328549
1566,0.103548,-1.380881,-0.297446
1567,0.138376,-0.722533,-1.13699
1568,0.564887,0.142908,-0.490589
1569,0.599209,0.786477,0.030468
1570,0.115254,0.904508,-0.032148
1571,-0.131263,0.565695,0.017458
1572,-0.254856,0.181472,0.097246
1573,-0.132373,-0.46089,0.119658
1574,-0.051348,-0.48692,0.017075
1575,-0.062785,-0.488102,0.019694
1576,-0.075063,-0.27668,0.296393
1577,0.134628,-0.035806,1.293733
1578,0.132191,0.113658,0.943453
1579,-0.163303,0.138766,0.181387
1580,-0.325776,0.088638,-0.068914
1581,-0.244305,0.156987,0.596315
1582,-0.103849,0.344952,0.949138
1583,-0.171951,0.597114,0.047173
1584,-0.165503,0.753075,0.11737
1585,0.161939,0.65382,0.853703
1586,0.281634,0.733501,0.500409
1587,0.029049,0.726765,0.367564
1588,-0.252859,0.660838,0.404754
1589,0.047783,0.386224,0.722825
1590,0.535947,0.26998,0.303588
1591,0.811476,0.412601,-0.24146
1592,1.163603,0.315016,-0.060059
1593,1.412975,0.149,0.526219
1594,0.780083,0.139551,0.777938
1595,0.611211,-0.093849,-0.298517
1596,0.083913,-0.14636,-0.601142
1597,-0.385491,0.318821,-0.05405
1598,-0.463631,0.092222,-0.094648
1599,0.069082,-0.664324,-0.385038
1600,0.314681,-0.962,-0.677285
1601,0.243148,-1.199445,-0.609167
1602,-0.00224,-1.29589,-0.266716
1603,-0.057779,-1.268958,-0.217723
1604,-0.071664,-1.295113,-0.143797
1605,-0.016775,-1.113811,0.09542
1606,-0.007108,-0.208109,0.607759
1607,0.058075,2.099032,1.708355
1608,0.240569,2.516075,0.664578
1609,0.009703,0.041128,0.35225
1610,0.202012,-0.871182,0.86077
1611,0.651175,-0.708758,1.05078
1612,1.059772,1.285786,0.11297
1613,0.158486,1.176365,-0.482796
1614,0.213515,-1.680238,-0.342713
1615,0.409942,-1.49089,0.353931
1616,-0.047787,-0.929894,-1.366341
1617,0.246599,-0.457095,-0.966648
1618,0.748608,0.573723,0.037925
1619,0.356909,0.823477,0.036402
1620,0.165849,0.695073,0.027913
1621,-0.096722,0.394665,-0.065308
1622,-0.113884,-0.037348,0.045621
1623,-0.164436,-0.352288,0.156363
1624,-0.133421,-0.381331,0.13092
1625,-0.089251,-0.347811,0.108007
1626,-0.12341,-0.322511,0.40181
1627,-0.028915,-0.278617,0.744933
1628,0.213811,-0.076917,0.771764
1629,0.193122,0.084145,0.608427
1630,-0.170333,0.177153,0.274683
1631,-0.338017,0.233972,0.525928
1632,-0.317676,0.317959,0.834333
1633,-0.289289,0.577622,0.147491
1634,-0.39367,0.76618,-0.021326
1635,0.026693,0.660287,0.833576
1636,0.276382,0.532383,0.868523
1637,-0.17115,0.588466,0.689269
1638,-0.327716,0.460072,0.68128
1639,-0.398565,0.34814,0.373512
1640,0.208363,0.558881,0.034854
1641,0.701419,0.829482,-0.253848
1642,1.394982,0.523516,0.320273
1643,1.235759,0.276357,0.815983
1644,0.738266,0.086793,0.315517
1645,0.504907,-0.184468,-0.99865
1646,0.274815,-0.049168,-0.7449
1647,-0.501202,0.377462,0.106595
1648,-0.24571,-0.133975,-0.313148
1649,0.110339,-0.636131,-0.416492
1650,0.252855,-1.114306,-0.64092
1651,0.213903,-1.299565,-0.560708
1652,0.095931,-1.320172,-0.448307
1653,-0.032252,-1.318451,-0.276387
1654,0.092821,-1.512142,-0.051572
1655,0.00214,-0.744703,0.1646
1656,0.003252,-0.238068,0.548762
1657,0.355548,3.252627,1.450307
1658,0.064837,1.268344,0.445104
1659,0.040142,-0.558252,0.546003
1660,0.807475,-0.369074,1.241497
1661,1.082324,0.254183,1.05036
1662,0.458342,1.022224,-0.447626
1663,0.542075,-1.513084,-0.465397
1664,0.796595,-1.929609,0.496465
1665,-0.051066,-0.960477,-1.718132
1666,0.20968,-0.533593,-1.107927
1667,0.458308,-0.089478,-0.6603
1668,0.286495,1.161949,-0.149784
1669,-0.038564,0.509094,0.037268
1670,-0.072701,0.313637,0.079016
1671,0.106368,-0.131646,0.029223
1672,0.031775,-0.446451,0.091357
1673,0.026403,-0.460121,0.097706
1674,-0.029894,-0.310141,0.062778
1675,-0.145695,-0.251295,0.273118
1676,-0.000305,-0.300069,0.823151
1677,0.146941,-0.185206,0.899965
1678,0.264718,0.058588,0.735446
1679,-0.085257,0.171891,0.255889
1680,-0.38538,0.186467,0.300684
1681,-0.401706,0.303246,0.673698
1682,-0.266117,0.489433,0.341141
1683,-0.341388,0.705066,-0.081777
1684,-0.249414,0.710883,0.191642
1685,0.245783,0.621251,0.799774
1686,0.059543,0.697839,0.528099
1687,-0.095782,0.667316,0.478951
1688,-0.177997,0.500756,0.434507
1689,0.468705,0.441959,0.424786
1690,0.755996,0.414065,0.091983
1691,1.286441,0.458779,-0.065091
1692,1.58454,0.159545,0.581438
1693,0.871798,0.231724,0.664088
1694,0.55027,0.002311,-0.082817
1695,0.22029,-0.04042,-0.843819
1696,-0.514156,0.355587,0.141347
1697,-0.339838,0.109237,-0.120592
1698,0.024873,-0.455707,-0.319632
1699,0.233452,-0.960217,-0.702498
1700,0.166961,-1.144832,-0.654977
1701,-0.007816,-1.351388,-0.363356
1702,-0.009011,-1.279091,-0.289111
1703,-0.043278,-1.327319,-0.233924
1704,-0.066679,-1.328139,-0.039224
1705,-0.102271,-0.231525,0.573813
1706,0.071214,1.304271,1.450064
1707,0.191985,2.129088,1.342127
1708,0.188868,0.619753,0.376538
1709,0.125586,-0.656636,0.693993
1710,0.885946,-0.502349,1.043971
1711,1.103367,0.683422,0.632617
1712,1.156867,1.937427,0.274226
1713,0.23754,-1.123502,-1.277016
1714,0.45199,-1.881657,0.312719
1715,-0.080896,-1.22695,-1.038686
1716,0.030388,-0.6866,-1.52863
1717,0.650392,0.288725,-0.485167
1718,0.595573,1.31406,0.200566
1719,0.10722,0.601336,0.119074
1720,0.081537,0.32532,-0.011697
1721,-0.058452,-0.114922,-0.022215
1722,-0.020025,-0.437794,0.092941
1723,-0.063617,-0.4616,0.114909
1724,-0.051074,-0.307778,-0.015695
1725,-0.174335,-0.289779,0.36111
1726,-0.090155,-0.232263,0.880653
1727,0.176887,-0.018608,0.774836
1728,0.115645,0.043235,0.64456
1729,-0.046618,0.10455,0.467429
1730,-0.28253,0.242501,0.39991
1731,-0.148694,0.409379,0.83389
1732,-0.086676,0.414252,0.626303
1733,-0.147739,0.776474,0.038981
1734,0.07385,0.72656,0.821616
1735,0.201053,0.688709,0.978089
1736,0.074851,0.707566,0.488028
1737,-0.244704,0.604566,0.45491
1738,-0.30476,0.492774,0.376593
1739,0.3114,0.408514,0.498016
1740,0.879232,0.572073,-0.181695
1741,1.293776,0.410829,0.131727
1742,1.434667,0.274825,0.382952
1743,0.941834,0.300179,0.767914
1744,0.484454,-0.033433,-0.557179
1745,0.2268,0.006698,-0.812408
1746,-0.420492,0.355037,0.211256
1747,-0.212806,-0.25133,-0.278958
1748,0.077167,-0.686729,-0.409209
1749,0.176582,-0.867416,-0.605397
1750,0.02834,-1.453339,-0.470013
1751,-0.047487,-1.32638,-0.312141
1752,-0.037385,-1.295778,-0.248605
1753,-0.0009,-1.360338,-0.174441
1754,-0.016953,-1.181178,0.062537
1755,-0.058218,-0.863792,0.360012
1756,-0.081109,1.631036,1.680691
1757,0.083797,2.739046,1.151569
1758,0.336555,1.591232,0.493878
1759,0.303565,-0.195161,0.765825
1760,1.216142,-0.645511,0.966575
1761,0.761325,-0.366813,0.894371
1762,0.844997,-0.058128,-0.836719
1763,0.647808,-0.790479,-0.312483
1764,0.024079,-0.59912,-0.508958
1765,-0.041381,-0.325983,-1.197117
1766,0.063942,-0.110507,-0.566275
1767,0.175053,0.465048,-0.080299
1768,0.164193,0.37166,-0.091345
1769,0.192481,0.268571,-0.037309
1770,0.154864,0.289643,-0.036631
1771,0.024939,-0.05623,0.06597
1772,-0.095338,-0.379639,0.362407
1773,-0.127514,-0.447546,0.223688
1774,-0.219894,-0.323932,-0.036357
1775,-0.194384,-0.32012,0.065236
1776,0.045807,-0.409432,0.774932
1777,0.28613,-0.226436,1.103614
1778,-0.138803,0.219989,0.384977
1779,-0.156172,0.239292,0.398111
1780,-0.373601,0.129035,0.108712
1781,-0.235844,0.623622,0.722513
1782,-0.237183,0.673864,0.257495
1783,-0.235345,0.755892,-0.001498
1784,0.217421,0.610912,0.929026
1785,0.342826,0.516751,0.843976
1786,0.094353,0.658308,0.539544
1787,-0.434237,0.507189,0.485115
1788,-0.420782,0.472372,0.14824
1789,0.201564,0.654514,0.214461
1790,0.624697,0.518597,-0.022781
1791,1.024562,0.573668,-0.050403
1792,1.393467,0.372444,0.387761
1793,0.94453,0.285474,0.640147
1794,0.651458,0.000121,0.042617
1795,-0.058961,0.135002,-0.352737
1796,-0.388525,0.374514,0.170565
1797,-0.441696,0.225653,-0.148656
1798,0.014389,-0.601694,-0.363919
1799,0.15056,-0.792613,-0.500373
1800,0.198746,-1.169454,-0.697793
1801,0.038788,-1.417148,-0.370279
1802,0.026677,-1.434592,-0.310766
1803,0.018407,-1.505018,-0.1806
1804,0.074419,-1.146757,0.050514
1805,0.087438,-0.706724,0.202983
1806,0.197645,1.493706,1.245308
1807,0.075375,2.617318,0.957808
1808,-0.290716,0.34818,0.191258
1809,-0.267476,-0.795508,0.42699
1810,0.481309,-0.661137,0.878318
1811,0.810995,0.762898,0.380296
1812,1.186805,1.481783,0.077993
1813,0.656469,-0.432332,-0.544602
1814,0.501971,-2.264272,0.273558
1815,0.07651,-1.625755,-0.651676
1816,0.077637,-0.922444,-1.593841
1817,0.499444,-0.244698,-0.913981
1818,0.782117,1.298266,-0.052891
1819,0.211674,0.989145,-0.006273
1820,-0.175379,0.253776,0.004171
1821,-0.242719,-0.042163,-0.022449
1822,-0.16239,-0.256268,-0.026952
1823,-0.083497,-0.35533,0.071237
1824,-0.085427,-0.346022,0.097721
1825,-0.132151,-0.25407,0.396798
1826,-0.041009,-0.208445,0.85806
1827,0.137215,-0.158095,0.755141
1828,0.237878,-0.035336,0.621998
1829,-0.100823,0.108353,0.259904
1830,-0.430735,0.184245,0.288222
1831,-0.32795,0.333153,0.816769
1832,0.034977,0.393855,0.466626
1833,-0.100603,0.578321,-0.077856
1834,-0.077139,0.619153,0.279493
1835,0.224008,0.617305,0.755987
1836,0.225255,0.741562,0.445624
1837,-0.089239,0.808678,0.447575
1838,-0.221047,0.543995,0.573312
1839,0.092066,0.220033,0.735377
1840,0.784495,0.303329,-0.081584
1841,0.900932,0.441567,-0.233403
1842,1.340488,0.32134,0.421327
1843,0.886939,0.358861,0.727014
1844,0.651412,0.103214,0.223071
1845,0.334518,-0.032466,-0.881888
1846,-0.290644,0.298472,-0.021825
1847,-0.482658,0.222025,-0.008462
1848,-0.238495,-0.435533,-0.249829
1849,0.13888,-0.772618,-0.469769
1850,0.245569,-1.163125,-0.530214
1851,0.091339,-1.420081,-0.384634
1852,0.010237,-1.22937,-0.259204
1853,-0.013992,-1.169793,-0.24359
1854,0.06496,-1.226444,-0.148663
1855,0.139168,-1.129453,0.050712
1856,0.128302,-0.264818,0.538465
1857,0.067883,1.509859,1.39079
1858,0.028813,2.426966,0.893431
1859,-0.001837,0.455973,0.35483
1860,0.146163,-0.662961,0.724248
1861,1.125533,-0.345526,1.01961
1862,1.164457,0.741045,0.67153
1863,0.974566,1.578246,-0.062598
1864,0.221606,-1.296592,-1.011522
1865,0.454172,-1.622862,0.391675
1866,-0.052567,-1.147321,-0.81945
1867,-0.100359,-0.905837,-1.573117
1868,0.828438,0.998011,0.301194
1869,0.77735,1.022488,0.372737
1870,0.105592,0.574347,0.154232
1871,-0.02632,0.053685,-0.032868
1872,-0.032321,-0.080045,-0.078549
1873,-0.008199,-0.192865,-0.062925
1874,-0.183989,-0.30977,0.058974
1875,-0.205409,-0.232306,0.082862
1876,-0.303982,-0.152955,0.284715
1877,0.056345,-0.211549,0.834601
1878,0.197198,-0.16297,0.733529
1879,0.43096,-0.164901,0.633236
1880,0.107629,-0.038648,0.183899
1881,-0.266997,0.189873,0.262504
1882,-0.344177,0.353704,0.608197
1883,-0.175613,0.479376,0.373658
1884,-0.137258,0.656902,0.142427
1885,0.182704,0.659021,0.731854
1886,0.241058,0.707089,0.653453
1887,0.147108,0.789244,0.379783
1888,-0.228263,0.906626,0.259772
1889,-0.107778,0.701784,0.57321
1890,0.436141,0.307857,0.874341
1891,0.919838,0.325622,-0.083751
1892,1.006512,0.373987,-0.212572
1893,1.273328,0.149007,0.192367
1894,0.732505,0.246292,0.809855
1895,0.597912,0.156725,0.4919
1896,0.004743,0.051531,-0.395731
1897,-0.532888,0.418659,-0.017846
1898,-0.485863,0.103519,-0.160393
1899,-0.128901,-0.445542,-0.342912
1900,0.174546,-0.776771,-0.521784
1901,0.213477,-1.136113,-0.617657
1902,0.035521,-1.519947,-0.41174
1903,-0.054537,-1.334476,-0.275239
1904,-0.039134,-1.21189,-0.253396
1905,-0.013364,-1.207389,-0.226889
1906,0.032935,-0.967605,0.21242
1907,-0.086069,0.105509,1.011805
1908,-0.025712,1.977757,1.612368
1909,0.024385,1.859819,0.673899
1910,0.153547,-0.446543,0.605263
1911,0.47903,-0.7519,0.829878
1912,1.009837,-0.696679,1.084875
1913,1.154034,1.04613,-0.127241
1914,1.160493,1.046064,-0.136109
1915,0.23187,-1.429495,-0.413334
1916,0.379674,-1.302404,0.435579
1917,0.053265,-0.836609,-1.525456
1918,0.076479,-0.607337,-1.432514
1919,0.628577,0.600679,-0.203339
1920,0.520343,1.019566,0.183938
1921,0.134899,0.664451,0.050644
1922,-0.021215,0.414529,-0.020245
1923,-0.048162,-0.22795,0.184941
1924,-0.041304,-0.472405,0.208748
1925,0.01927,-0.489116,0.096871
1926,-0.041521,-0.450417,0.127123
1927,-0.01527,-0.309646,0.526158
1928,0.118433,-0.17751,0.95139
1929,0.182023,0.075646,0.965704
1930,-0.150505,0.205235,0.52233
1931,-0.362227,0.207988,0.132661
1932,-0.33357,0.343557,0.592785
1933,-0.082223,0.560917,0.801314
1934,0.048059,0.631344,0.215813
1935,0.064315,0.695917,0.285741
1936,0.213126,0.825038,0.634745
1937,-0.072472,0.862099,0.42807
1938,-0.313015,0.737138,0.311011
1939,-0.123102,0.543505,0.708089
1940,0.46528,0.303679,0.497123
1941,0.825986,0.398989,-0.089153
1942,1.129651,0.459643,-0.040951
1943,1.464055,0.24026,0.427082
1944,0.852248,0.291139,0.793938
1945,0.5533,0.014232,-0.107177
1946,0.018085,0.107346,-0.515109
1947,-0.579775,0.348126,0.263218
1948,-0.407318,-0.089257,-0.194537
1949,0.02053,-0.554026,-0.350642
1950,0.1934,-0.934326,-0.475849
1951,0.083219,-1.269202,-0.447887
1952,-0.071149,-1.328462,-0.254963
1953,-0.095782,-1.214078,-0.177689
1954,-0.061558,-1.206458,-0.200805
1955,-0.016219,-1.152372,-0.104128
1956,-0.05789,-0.872066,0.238622
1957,-0.188109,0.426627,1.055157
1958,-0.016024,2.354743,1.336111
1959,0.074852,1.531125,0.552502
1960,0.158779,-0.142419,0.463176
1961,0.180935,-1.182912,0.654376
1962,0.704654,-0.948738,0.821603
1963,0.662247,-0.022514,0.085421
1964,1.929205,0.991751,0.124909
1965,1.722746,2.663491,0.731084
1966,-0.256262,-1.353412,-0.191736
1967,-0.099953,-1.518326,-0.15484
1968,-0.216989,-1.110093,-1.182437
1969,-0.010701,-0.611293,-0.844689
1970,0.594306,0.389765,-0.288064
1971,0.450422,1.302208,0.169667
1972,0.077392,1.259583,0.295698
1973,-0.318048,0.099699,0.216317
1974,-0.161208,-0.393582,0.106147
1975,-0.120072,-0.546914,0.145369
1976,-0.0396,-0.278139,-0.046701
1977,0.006234,-0.174382,0.076545
1978,0.002591,-0.133,0.364326
1979,0.226501,-0.05826,0.843907
1980,0.119691,0.023861,0.648032
1981,-0.274867,0.216486,0.163486
1982,-0.350472,0.320545,0.623849
1983,-0.154714,0.43105,0.734229
1984,-0.090971,0.563443,0.330862
1985,-0.190222,0.686542,0.188994
1986,-0.054522,0.710151,0.628138
1987,0.099097,0.886427,0.479794
1988,-0.003787,0.802634,0.471513
1989,-0.323791,0.824643,0.437139
1990,-0.069876,0.417928,0.770428
1991,0.286212,0.209469,0.573272
1992,0.659518,0.40138,-0.008342
1993,0.857296,0.449921,-0.100194
1994,1.127551,0.294269,0.238704
1995,0.953278,0.339701,0.719351
1996,0.634354,0.130756,0.680703
1997,0.359749,-0.06606,-0.598794
1998,-0.16123,0.07455,-0.212983
1999,-0.397861,0.161868,-0.003836
2000,-0.125652,-0.375575,-0.206008
2001,0.108135,-0.711927,-0.338408
2002,0.115073,-0.999298,-0.373952
2003,-0.022192,-1.135305,-0.355742
2004,-0.093118,-1.092676,-0.225141
2005,-0.093441,-1.0603,-0.221248
2006,-0.058578,-1.103177,-0.130922
2007,-0.011914,-1.117513,0.070646
2008,-0.027182,-0.968729,0.267777
2009,0.007593,1.946206,1.532902
2010,0.003123,1.950711,1.508235
2011,0.272327,0.836669,0.472561
2012,0.080338,-0.494796,0.59045
2013,0.462406,-0.802645,1.019171
2014,0.605412,0.151868,0.871368
2015,0.721592,1.347804,-0.009881
2016,0.108147,0.380783,-0.611477
2017,0.381169,-1.570808,-0.00446
2018,0.405121,-1.476247,0.311523
2019,-0.065939,-1.005713,-1.349876
2020,0.208842,-0.354452,-1.02951
2021,0.650908,0.706791,-0.032644
2022,0.051861,1.062801,0.296596
2023,-0.086018,0.506492,0.164995
2024,0.013647,0.237611,0.063362
2025,0.056933,-0.250252,-0.019039
2026,-0.009298,-0.367718,0.106903
2027,-0.059552,-0.281485,0.082118
2028,-0.199695,-0.074041,0.063875
2029,-0.322455,0.035165,0.743125
2030,-0.033999,-0.073238,0.767851
2031,0.068349,-0.053401,0.58649
2032,0.030451,0.057039,0.458231
2033,-0.140958,0.307389,0.462977
2034,-0.315797,0.341785,0.680666
2035,-0.230417,0.478331,0.505611
2036,-0.235973,0.713826,0.372241
2037,-0.294938,0.894143,0.309696
2038,-0.066108,0.804981,0.64846
2039,0.139955,0.797154,0.572741
2040,-0.023808,0.821158,0.533685
2041,-0.24724,0.727649,0.56584
2042,-0.04747,0.422863,0.776862
2043,0.41016,0.325518,0.465259
2044,0.736504,0.467961,-0.135809
2045,0.932521,0.510086,0.001944
2046,1.135615,0.350539,0.627998
2047,0.625262,0.367394,0.885742
2048,0.470979,0.087623,-0.152673
2049,0.066504,-0.030109,-0.519242
2050,-0.155541,0.132905,-0.167322
2051,-0.271731,-0.230207,-0.1745
2052,-0.113204,-0.471334,-0.26746
2053,0.005076,-0.653122,-0.418445
2054,0.067827,-1.230649,-0.443251
2055,0.030512,-1.248504,-0.326586
2056,-0.006797,-1.208753,-0.250504
2057,-0.052238,-1.230591,-0.022778
2058,-0.047126,-1.204563,0.067466
2059,-0.059152,-1.110742,0.244708
2060,-0.042742,1.568554,1.527539
2061,0.067482,2.294089,1.102859
2062,0.379452,1.135506,0.596803
2063,0.239648,-0.359042,0.645667
2064,0.92239,-0.668426,1.240166
2065,1.258294,0.634878,0.74975
2066,0.321983,0.985258,-0.31656
2067,-0.213643,-1.269332,-1.174123
2068,0.271973,-1.113584,0.351733
2069,-0.046779,-0.576571,-1.4919
2070,-0.00989,-0.36907,-1.301838
2071,0.607771,0.953389,0.16153
2072,-0.006281,0.668011,-0.035138
2073,-0.105426,0.512933,0.047333
2074,-0.173101,0.279117,0.050139
2075,-0.149802,0.073997,0.118192
2076,-0.145762,-0.275952,0.23237
2077,-0.167477,-0.355978,0.077806
2078,-0.194058,-0.282196,0.05271
2079,-0.23875,-0.108823,0.694437
2080,-0.013235,-0.015734,0.972111
2081,0.039596,0.047502,0.949481
2082,-0.006944,0.197986,0.619818
2083,-0.356709,0.283032,0.147928
2084,-0.370024,0.365395,0.935224
2085,-0.159073,0.520862,0.618508
2086,-0.223922,0.711588,0.073876
2087,-0.20115,0.807778,0.303658
2088,0.059962,0.768112,0.796413
2089,0.011647,0.946091,0.514272
2090,-0.264885,0.892767,0.565336
2091,-0.460207,0.621698,0.417869
2092,-0.118614,0.465611,0.642175
2093,0.387517,0.506678,0.252855
2094,0.692231,0.686729,-0.197931
2095,0.883847,0.499679,0.000307
2096,1.095407,0.298641,0.6281
2097,0.69692,0.430797,0.613398
2098,0.464255,0.031918,-0.05596
2099,0.024589,-0.06082,-0.57482
2100,-0.342318,0.022054,-0.074666
2101,-0.442792,-0.022696,-0.094537
2102,-0.012018,-0.622032,-0.445125
2103,0.057414,-0.777817,-0.487193
2104,0.100339,-0.911376,-0.542125
2105,-0.023664,-1.174753,-0.342582
2106,-0.071343,-1.155637,-0.220678
2107,-0.064785,-1.155577,-0.230648
2108,-0.027931,-1.058176,0.148969
2109,-0.050682,-0.754777,0.410518
2110,-0.06869,-0.109107,0.734948
2111,-0.003505,1.987701,0.795639
2112,0.089562,1.190438,0.565739
2113,0.016276,-0.252235,0.534169
2114,0.271181,-1.075223,0.878928
2115,0.619924,-0.497343,0.742247
2116,0.778359,0.312314,0.080068
2117,1.459418,1.413904,0.421377
2118,0.096778,-0.186472,-0.467123
2119,-0.139221,-1.265829,0.021535
2120,-0.422539,-0.899456,-1.229319
2121,-0.14681,-0.38004,-1.032918
2122,0.364279,0.577644,0.034657
2123,0.1727,1.188181,0.222834
2124,0.131341,1.040185,0.15209
2125,-0.246944,0.040565,0.191912
2126,-0.125921,-0.486025,0.213867
2127,-0.105481,-0.618157,0.183247
2128,-0.018275,-0.435114,-0.028103
2129,-0.09908,-0.121782,0.053746
2130,-0.202448,0.007669,0.994301
2131,-0.015376,0.029647,0.957755
2132,0.023188,0.107129,0.562791
2133,-0.133929,0.253723,0.255041
2134,-0.272473,0.263736,0.463495
2135,-0.198469,0.330164,0.905233
2136,-0.037824,0.48073,0.510155
2137,-0.228122,0.738452,0.109703
2138,-0.25024,0.851451,0.447621
2139,-0.04951,0.958063,0.567845
2140,-0.124968,0.973284,0.358505
2141,-0.229082,0.932497,0.40732
2142,-0.04097,0.506842,0.924261
2143,0.346862,0.259172,0.619538
2144,0.696286,0.487299,-0.179859
2145,0.810411,0.452823,-0.139055
2146,0.923682,0.373581,-0.019282
2147,0.490563,0.431687,0.704888
2148,0.505536,0.416822,0.659138
2149,0.090282,0.08642,-0.544715
2150,-0.510742,0.321664,-0.050895
2151,-0.478182,0.305117,-0.077292
2152,-0.168262,-0.387609,-0.309716
2153,0.129714,-0.819625,-0.472237
2154,0.147181,-0.974063,-0.497057
2155,0.134948,-1.087358,-0.454603
2156,-0.102434,-1.201672,-0.197401
2157,-0.132252,-1.197504,-0.190425
2158,-0.16054,-1.177305,0.020498
2159,-0.117066,-1.007222,0.37444
2160,-0.069123,-0.026393,1.003778
2161,0.030234,1.90995,1.359189
2162,0.283775,0.795743,0.43677
2163,0.137819,-0.002193,0.434131
2164,-0.030304,-0.630587,0.571467
2165,0.423043,-0.70262,0.785478
2166,1.146555,0.39094,-0.102421
2167,1.799807,2.444283,0.4741
2168,-0.271997,-0.165289,-0.447567
2169,-0.13482,-1.278915,0.017425
2170,-0.254514,-1.144091,-0.870761
2171,-0.528144,-0.540915,-1.147285
2172,-0.184452,-0.092787,-0.552481
2173,0.717275,1.114733,0.329057
2174,0.313354,0.993903,-0.016946
2175,-0.183461,0.623569,-0.086814
2176,-0.286782,-0.153989,0.171247
2177,-0.035826,-0.597089,0.352232
2178,0.161003,-0.646831,0.294629
2179,0.03527,-0.474396,0.16234
2180,-0.060284,-0.109449,0.175325
2181,-0.290747,0.029069,0.665458
2182,-0.235621,0.117383,1.172035
2183,0.008548,0.615625,0.661485
2184,-0.208983,0.461345,0.117645
2185,-0.350488,0.17076,0.542068
2186,-0.102777,0.383223,0.991829
2187,-0.072637,0.624557,0.210622
2188,-0.257686,0.679264,-0.065486
2189,-0.016219,0.767707,0.848313
2190,-0.01841,0.75743,0.833705
2191,-0.18309,0.844289,0.431956
2192,-0.381092,0.65701,0.627073
2193,-0.208093,0.645205,0.566268
2194,0.206153,0.519929,0.484729
2195,0.478247,0.402818,-0.123852
2196,0.71497,0.46694,-0.234216
2197,1.087733,0.380406,0.241395
2198,0.743988,0.449664,0.632649
2199,0.355709,0.168327,0.236362
2200,0.01752,0.09591,-0.479824
2201,-0.256973,0.277244,-0.124118
2202,-0.393137,0.367232,0.059394
2203,-0.220354,-0.235822,-0.309967
2204,0.003287,-0.542908,-0.441241
2205,0.260345,-0.848435,-0.476689
2206,0.274044,-1.050455,-0.398677
2207,0.085928,-1.240432,-0.254319
2208,-0.015852,-1.266081,-0.148819
2209,0.033314,-1.283916,0.05514
2210,0.080498,-1.121026,0.081233
2211,0.312088,-0.067135,0.845864
2212,0.29198,1.767124,1.210642
2213,-0.045156,2.373321,1.040469
2214,-0.157758,-0.130524,0.534279
2215,-0.14153,-1.407265,0.53896
2216,0.135723,-1.178477,0.910548
2217,0.134276,-0.041215,0.197279
2218,1.302815,1.075371,-0.390649
2219,1.275979,2.856503,0.368325
2220,-0.359654,-0.812159,-0.405277
2221,-0.090053,-1.808054,0.37632
2222,0.092024,-1.366439,-0.957223
2223,0.100469,-0.873295,-0.751787
2224,0.425023,-0.044173,-0.738773
2225,0.70242,0.675855,-0.294013
2226,0.62294,1.818136,-0.379692
2227,-0.434204,0.352616,0.220177
2228,-0.519916,-0.2952,0.296797
2229,-0.182298,-0.337771,0.373445
2230,-0.156938,-0.359499,0.334296
2231,-0.036913,-0.346485,0.327511
2232,-0.021985,-0.062606,0.478042
2233,-0.013821,0.045362,0.656338
2234,-0.06728,0.205685,0.591512
2235,-0.076832,0.223405,0.605509
2236,-0.245077,0.361453,0.292202
2237,-0.367219,0.271987,0.704814
2238,-0.374679,0.288023,0.716031
2239,-0.187406,0.626948,0.266182
2240,-0.277681,0.705582,0.37184
