,userAcceleration.x,userAcceleration.y,userAcceleration.z
0,0.265308,0.15334,-0.097258
1,0.392272,0.330613,-0.122218
2,0.342804,0.257247,-0.174546
3,0.318899,0.351972,-0.144781
4,0.133614,0.265632,0.020624
5,0.031844,0.017795,0.192025
6,-0.059969,-0.12565,0.242622
7,-0.097703,0.121741,0.165152
8,-0.231345,0.537728,0.192217
9,-0.32306,0.673386,0.214201
10,-0.212647,0.509243,0.101277
11,-0.117642,0.271787,-0.076472
12,0.005111,0.133433,-0.041657
13,0.026618,-0.029961,0.002808
14,0.023219,-0.038534,0.013183
15,0.035376,-0.102101,0.051237
16,-0.01038,-0.276894,0.092579
17,-0.028393,-0.370591,0.133087
18,-0.096487,-0.531364,0.19622
19,-0.10767,-0.562618,0.211709
20,-0.127844,-0.578336,0.147725
21,-0.115421,-0.516719,0.101539
22,-0.058041,-0.400884,0.007962
23,0.020588,-0.248126,-0.115113
24,0.020078,-0.170319,-0.148795
25,-0.036769,0.048298,-0.230354
26,-0.05304,0.443082,-0.401008
27,-0.049514,0.44091,-0.408806
28,-0.06751,0.175734,-0.360035
29,-0.146595,0.693788,-0.023996
30,-0.139381,1.024189,-0.013017
31,-0.552087,0.119672,0.004442
32,-0.515012,-0.113419,0.179803
33,-0.129057,-0.160249,0.305425
34,0.321577,-0.250523,0.376034
35,0.410958,0.12205,0.31309
36,0.233199,0.239621,0.223089
37,-0.07982,0.279763,0.022261
38,-0.105299,0.217483,0.079071
39,-0.121227,0.025643,0.198675
40,-0.073541,-0.171635,0.273311
41,-0.055712,-0.20968,0.24411
42,-0.026182,-0.172666,0.171459
43,-0.026517,-0.294408,0.081231
44,-0.035123,-0.288142,0.064476
45,-0.026089,-0.327366,0.137826
46,0.013788,-0.428141,0.14086
47,-0.045594,-0.269241,0.078884
48,-0.039081,-0.092403,-0.016401
49,-0.009481,-0.024776,-0.125328
50,0.00231,0.070501,-0.173337
51,0.050262,0.110465,-0.178809
52,0.21633,0.114063,-0.182297
53,0.431214,0.184182,-0.166474
54,0.482445,0.248216,-0.209703
55,0.354938,0.372463,-0.144009
56,0.242025,0.336076,0.005966
57,0.081274,0.245066,0.07863
58,-0.087013,-0.074569,0.358761
59,-0.108776,0.082549,0.26949
60,-0.180949,0.359439,0.246547
61,-0.413912,0.693494,0.207115
62,-0.316703,0.593206,0.043416
63,-0.199542,0.454301,0.00585
64,0.036116,0.198389,-0.109181
65,0.021761,0.016781,-0.065853
66,0.060655,0.003922,-0.000615
67,0.038799,-0.237986,0.040573
68,-0.053518,-0.378367,0.104542
69,-0.073424,-0.415655,0.121076
70,-0.095306,-0.514549,0.162245
71,-0.149866,-0.582283,0.16825
72,-0.176086,-0.639232,0.156069
73,-0.205954,-0.64409,0.070006
74,-0.198344,-0.513009,-0.010481
75,-0.103351,-0.367183,-0.08484
76,0.022182,-0.190439,-0.186405
77,0.124112,0.37132,-0.297301
78,0.113045,0.576788,-0.209657
79,-0.236334,0.739198,-0.353107
80,-0.358203,0.796403,-0.269529
81,-0.413316,0.802667,-0.183091
82,-0.510819,0.170648,0.059033
83,-0.532342,0.030556,0.228953
84,-0.382486,-0.049372,0.42056
85,0.245759,-0.270149,0.388002
86,0.287959,-0.119353,0.338866
87,0.147172,0.332513,0.206641
88,-0.042369,0.382576,0.168671
89,-0.132442,0.337935,0.170545
90,-0.123041,-0.141291,0.17871
91,-0.062972,-0.295729,0.181828
92,-0.032303,-0.275656,0.171878
93,-0.088545,-0.208971,0.104257
94,-0.15241,-0.2588,-0.001437
95,-0.135131,-0.273101,0.058031
96,-0.110965,-0.421035,0.079849
97,-0.132805,-0.354638,0.107258
98,-0.112028,-0.057087,0.029932
99,0.093675,0.002082,-0.209996
100,0.240034,0.021556,-0.298213
101,0.296671,0.081322,-0.282477
102,0.268711,0.01361,-0.235693
103,0.19037,0.193311,-0.08242
104,0.269244,0.308107,-0.077694
105,0.273695,0.40722,-0.122262
106,0.095574,0.471932,-0.009045
107,0.055763,0.349964,0.146133
108,-0.066167,0.014905,0.313783
109,-0.254611,-0.324539,0.372569
110,-0.277381,0.260222,0.124253
111,-0.242569,0.572385,0.148456
112,-0.173171,0.65782,-0.182902
113,-0.058975,0.561794,-0.212223
114,-0.005598,0.512645,-0.227902
115,0.02613,0.208327,-0.089441
116,0.102786,-0.021927,-0.119911
117,0.148559,-0.061958,-0.104564
118,0.134062,-0.119651,-0.048472
119,-0.103734,-0.298782,0.04774
120,-0.140603,-0.401177,0.117272
121,-0.220124,-0.594789,0.153114
122,-0.219274,-0.807039,0.145648
123,-0.226155,-0.753844,0.119321
124,-0.192928,-0.537459,0.041455
125,-0.139456,-0.457934,-0.03284
126,0.004993,-0.281676,-0.174336
127,0.192921,0.194488,-0.261727
128,0.125545,0.442839,-0.312035
129,0.0068,0.824315,-0.294924
130,-0.235205,0.359309,-0.612608
131,-0.195737,0.191265,-0.43516
132,-0.205051,0.636813,-0.121348
133,-0.257896,0.046398,0.189518
134,-0.348034,-0.458485,0.317015
135,-0.335231,-0.363373,0.415194
136,-0.262923,0.545012,0.394522
137,-0.111091,0.709003,0.316548
138,0.099797,-0.001785,0.304568
139,0.139717,-0.155989,0.232233
140,0.035052,-0.146251,0.274992
141,-0.110674,-0.093824,0.223963
142,-0.150733,-0.001146,0.094371
143,-0.071631,0.027497,-0.027241
144,-0.009443,-0.082139,0.046657
145,-0.048398,-0.312487,0.102544
146,-0.132627,-0.470533,0.171964
147,-0.114185,-0.456591,0.124437
148,-0.111462,-0.313916,0.058266
149,-0.011027,-0.292519,0.06127
150,0.058101,-0.205186,0.052155
151,0.061403,0.00616,-0.049109
152,0.102708,0.02335,-0.237957
153,0.160637,0.082037,-0.252213
154,0.242919,0.220712,-0.230773
155,0.209587,0.2924,-0.126442
156,0.24441,0.29923,-0.113848
157,0.301266,0.243016,-0.181168
158,0.278174,0.459931,-0.091611
159,0.24047,0.294059,-0.02692
160,0.157313,0.10282,0.101271
161,-0.123945,-0.004237,0.268785
162,-0.156588,0.224193,0.210653
163,-0.241569,0.565727,0.173691
164,-0.315098,0.399104,0.236707
165,-0.258842,0.290201,0.185243
166,-0.142515,0.204046,0.048094
167,0.027809,0.122988,0.016738
168,0.027518,0.127735,0.049086
169,0.023173,-0.222659,0.119593
170,-0.022555,-0.224628,0.118678
171,-0.006042,-0.239668,0.149837
172,0.010404,-0.348683,0.20903
173,-0.066524,-0.519374,0.202849
174,-0.119013,-0.617673,0.219202
175,-0.218203,-0.664931,0.196808
176,-0.229631,-0.540556,0.120673
177,-0.170887,-0.486104,0.049807
178,0.006683,-0.152902,-0.199935
179,-0.017268,-0.011417,-0.31558
180,-0.042206,0.148978,-0.304917
181,0.042624,0.762355,-0.252761
182,0.029965,0.744503,-0.373431
183,-0.067182,0.301495,-0.54303
184,0.069803,0.747062,-0.151557
185,-0.020719,0.567461,0.062104
186,-0.196801,0.212684,0.159377
187,-0.320032,0.108944,0.415443
188,-0.269406,0.206537,0.376323
189,-0.063427,0.084305,0.341386
190,0.200613,-0.045279,0.362085
191,0.193907,0.038018,0.284555
192,0.112566,0.051245,0.25468
193,-0.115318,0.093196,0.223564
194,-0.102469,-0.064335,0.137241
195,-0.062093,-0.194917,0.082911
196,-0.02871,-0.234752,0.094517
197,-0.053763,-0.305826,0.127146
198,-0.087222,-0.390323,0.111535
199,-0.09583,-0.349659,0.094023
200,-0.048163,-0.456101,0.045065
201,0.062913,-0.354811,0.012468
202,0.108411,-0.092403,-0.041311
203,0.172193,0.011691,-0.109716
204,0.196895,0.010855,-0.145837
205,0.129114,-0.045111,-0.179132
206,0.185782,0.24719,-0.15018
207,0.194628,0.24698,-0.160088
208,0.417334,0.435879,-0.165469
209,0.440895,0.300657,-0.198612
210,0.384438,0.450304,-0.087621
211,0.149042,0.172471,0.084819
212,0.08684,0.020732,0.16674
213,-0.137339,-0.264683,0.208763
214,-0.025843,0.021836,0.209147
215,-0.154341,0.763004,0.364534
216,-0.239802,0.803337,0.347706
217,-0.344308,0.67799,0.228649
218,-0.353294,0.305044,-0.023636
219,-0.246886,0.161171,-0.029741
220,0.018089,-0.033832,0.011322
221,0.085334,-0.33502,0.09499
222,0.096536,-0.314024,0.156867
223,0.070534,-0.470674,0.216908
224,0.069836,-0.524183,0.235111
225,0.000281,-0.684596,0.255314
226,-0.179582,-0.685142,0.237913
227,-0.226113,-0.661832,0.1932
228,-0.266873,-0.378397,-0.023826
229,-0.166328,-0.177176,-0.168275
230,-0.107916,-0.103901,-0.197726
231,-0.020514,0.126283,-0.298073
232,0.33123,0.580211,-0.189553
233,0.251425,0.656888,-0.264833
234,-0.094937,0.234051,-0.655307
235,-0.185217,0.104318,0.072718
236,-0.196869,0.462958,0.06414
237,-0.329765,-0.076343,0.355801
238,-0.532343,-0.26348,0.542305
239,-0.425641,0.659003,0.478592
240,-0.080449,0.49564,0.228741
241,0.284273,-0.232717,0.361213
242,0.335813,-0.203227,0.265692
243,0.222987,-0.027563,0.222538
244,0.094514,0.184267,0.215747
245,-0.057204,0.251835,0.15119
246,-0.126614,-0.02023,0.126585
247,-0.093153,-0.260289,0.182485
248,-0.156481,-0.425682,0.152158
249,-0.197789,-0.474906,0.122655
250,-0.045549,-0.254801,0.158224
251,-0.011905,-0.283965,0.149085
252,0.021435,-0.353361,0.109998
253,0.031134,-0.223533,0.017378
254,0.054188,-0.087205,0.006087
255,0.038876,-0.013981,-0.041345
256,0.020243,0.040284,-0.131779
257,0.08005,0.136617,-0.190993
258,0.363622,0.215655,-0.147331
259,0.508572,0.291991,-0.211919
260,0.449564,0.239126,-0.22319
261,0.341019,0.499578,-0.072778
262,0.239937,0.322193,0.039315
263,0.092136,0.036825,0.159042
264,-0.122431,-0.279534,0.213074
265,-0.138648,-0.046293,0.204767
266,-0.304581,0.819175,0.291345
267,-0.321697,0.884163,0.309639
268,-0.267061,0.723196,0.241594
269,-0.111404,0.299793,-0.059945
270,-0.080471,0.162187,-0.119531
271,0.042177,0.029328,-0.026251
272,0.0178,-0.216456,0.05955
273,0.029279,-0.203606,0.093238
274,0.034946,-0.268549,0.179636
275,0.001454,-0.551617,0.266412
276,-0.032038,-0.646419,0.250821
277,-0.148333,-0.730468,0.225374
278,-0.17828,-0.727272,0.208909
279,-0.199034,-0.580065,0.130474
280,-0.116177,-0.384436,0.018383
281,-0.055959,-0.132405,-0.110464
282,-0.040192,0.033869,-0.235426
283,0.008862,0.502528,-0.214898
284,-0.03686,0.849681,-0.371168
285,-0.077834,0.967193,-0.513432
286,-0.194277,0.428185,-0.262103
287,-0.150405,0.476483,-0.247992
288,-0.143677,0.266717,0.00889
289,-0.272528,-0.11921,0.36389
290,-0.204372,-0.037763,0.44725
291,-0.204334,0.094006,0.417986
292,0.025642,0.167478,0.35009
293,0.113527,0.092758,0.292507
294,0.159123,0.053535,0.245721
295,0.106893,-0.08741,0.301856
296,0.023046,0.011945,0.281388
297,-0.041181,0.01603,0.219155
298,-0.065307,-0.123191,0.090717
299,-0.076551,-0.280836,0.109717
300,-0.087355,-0.282268,0.089359
301,-0.090647,-0.400995,0.075345
302,-0.050739,-0.356378,0.09401
303,0.082331,-0.427744,0.043277
304,0.144834,-0.37867,-0.004597
305,0.010376,-0.095312,0.033798
306,-0.029189,0.074412,-0.088884
307,0.029411,0.04295,-0.074548
308,0.116963,0.065336,-0.187706
309,0.14134,0.219779,-0.178496
310,0.366508,0.325896,-0.108289
311,0.43547,0.222904,-0.133592
312,0.395983,0.434084,-0.036573
313,0.236144,0.446483,0.045882
314,-0.031048,-0.126113,0.229276
315,-0.115337,-0.229753,0.208416
316,-0.191823,-5.00E-06,0.221259
317,-0.338753,0.807524,0.288854
318,-0.385873,0.795028,0.321915
319,-0.144611,0.409793,-0.013716
320,-0.1284,0.264848,-0.078975
321,-0.028106,0.059644,-0.036121
322,0.055252,-0.077914,0.00572
323,0.051892,-0.187025,0.056255
324,0.06799,-0.097034,0.140742
325,0.001362,-0.298313,0.213605
326,-0.012915,-0.386496,0.255539
327,-0.056251,-0.794881,0.247642
328,-0.125145,-0.899119,0.230499
329,-0.203723,-0.799781,0.118358
330,-0.198993,-0.719933,0.067213
331,-0.082737,-0.388424,-0.031401
332,0.053211,0.053979,-0.214281
333,0.239391,0.657388,-0.328524
334,0.184429,0.92045,-0.338195
335,-0.09778,0.552343,-0.431742
336,-0.235919,0.116199,-0.279792
337,-0.284309,0.533854,-0.100074
338,-0.189846,0.39872,0.177409
339,-0.375208,-0.264434,0.342323
340,-0.348273,0.037531,0.613427
341,-0.308734,0.388538,0.494259
342,0.127603,0.331044,0.265389
343,0.305828,-0.030861,0.281909
344,0.316228,-0.138468,0.262148
345,0.202408,-0.134902,0.288825
346,-0.065431,0.087431,0.273515
347,-0.097972,-0.09402,0.147638
348,-0.107411,-0.100067,0.115772
349,-0.022562,-0.313623,0.174528
350,-0.181641,-0.518907,0.108404
351,-0.206681,-0.570116,0.064733
352,-0.101336,-0.371596,0.154978
353,0.013015,-0.293673,0.109205
354,0.105839,-0.206387,0.119587
355,0.143818,-0.082,-0.003818
356,0.154019,0.11086,-0.184211
357,0.191817,0.240904,-0.123832
358,0.1431,0.162535,-0.230985
359,0.270264,0.178647,-0.053694
360,0.564513,0.193631,-0.043009
361,0.505525,0.189498,-0.20032
362,0.213773,0.570618,0.061245
363,0.225069,0.323584,0.194875
364,0.215981,-0.131786,0.25277
365,-0.057967,-0.119961,0.120377
366,-0.15869,0.7247,0.235895
367,-0.212124,0.811005,0.138701
368,-0.121032,0.757324,0.228223
369,-0.142201,0.313469,0.138036
370,-0.131488,0.225081,0.10539
371,-0.112243,0.053676,0.032539
372,-0.027766,-0.011226,0.057068
373,0.047347,-0.04319,0.158089
374,0.056495,-0.204552,0.236489
375,-0.017112,-0.364631,0.293636
376,-0.077225,-0.523116,0.376055
377,-0.076277,-0.64053,0.427844
378,-0.099665,-0.714128,0.346759
379,-0.154544,-0.620393,0.216042
380,-0.070425,-0.526449,0.029128
381,-0.007655,-0.48256,-0.036638
382,0.10676,-0.277295,-0.170454
383,-0.051474,0.141609,-0.365992
384,-0.064814,0.416783,-0.297966
385,0.116749,0.835371,-0.364372
386,0.01359,0.301281,-0.582946
387,-0.041095,0.235388,-0.094871
388,0.046058,0.866623,0.088865
389,-0.467555,-0.130546,0.398398
390,-0.572846,-0.293406,0.456033
391,-0.380413,0.551216,0.458786
392,-0.044564,0.403825,0.235948
393,0.050917,0.148115,0.264709
394,0.259392,0.080785,0.272958
395,0.229307,0.057197,0.223097
396,0.136799,0.01223,0.221889
397,-0.024441,0.116892,0.166216
398,-0.053706,-0.136717,0.084646
399,-0.063763,-0.202005,0.092343
400,-0.13869,-0.452803,0.144105
401,-0.161639,-0.605696,0.102515
402,-0.072378,-0.447296,0.09575
403,0.019014,-0.265967,0.0628
404,0.132328,-0.379479,-0.038399
405,0.164822,-0.31648,-0.113709
406,0.114287,-0.083448,-0.086808
407,0.136087,-0.015508,-0.084905
408,0.148406,-0.015486,-0.105932
409,0.226593,0.181444,-0.162437
410,0.451485,0.516618,-0.117153
411,0.457645,0.520049,-0.125379
412,0.342013,0.565173,-0.131043
413,0.398652,0.263284,0.283248
414,0.385396,0.264123,0.28953
415,-0.084762,0.103862,0.434384
416,-0.609195,0.500751,0.236685
417,-0.727025,0.763228,0.256032
418,-0.209527,0.38252,0.2327
419,-0.213259,0.386574,0.264481
420,0.075247,0.297678,-0.072131
421,0.131733,-0.036963,0.047684
422,0.126781,-0.1411,0.033583
423,0.123764,-0.133699,0.062005
424,0.044565,-0.353882,0.241377
425,-0.04123,-0.51891,0.269811
426,-0.085683,-0.611256,0.274089
427,-0.232503,-0.698316,0.265942
428,-0.2301,-0.755308,0.254725
429,-0.185147,-0.716048,0.234909
430,-0.078171,-0.293748,0.087718
431,0.033701,0.05485,-0.122429
432,0.040033,0.232761,-0.28479
433,0.040803,0.47649,-0.421941
434,0.129652,0.456692,-0.337684
435,0.192723,0.283777,-0.34792
436,-0.048077,0.052502,-0.301499
437,-0.141259,0.193375,-0.022218
438,-0.164467,0.593131,0.103945
439,-0.539662,-0.356563,0.49173
440,-0.563243,0.006391,0.56899
441,-0.437925,0.826469,0.245706
442,0.123088,-0.00461,0.323087
443,0.237817,-0.080332,0.340218
444,0.36992,-0.00418,0.308317
445,0.0661,0.047886,0.323839
446,-0.180372,0.127568,0.301235
447,-0.252835,0.04859,0.200773
448,-0.19241,-0.210672,0.116158
449,-0.121201,-0.322591,0.164762
450,-0.079282,-0.42372,0.134428
451,-0.042065,-0.448322,0.107974
452,0.021214,-0.327541,0.130114
453,0.009895,-0.380298,0.083265
454,-0.037947,-0.217353,0.005715
455,-0.044568,-0.048857,-0.02458
456,0.050644,0.027106,-0.09393
457,0.088511,0.062434,-0.095443
458,0.114184,0.185024,-0.258335
459,0.241586,0.192474,-0.241394
460,0.451794,0.193823,-0.218774
461,0.456808,0.156893,-0.215864
462,0.377139,0.170182,-0.179258
463,-0.020682,0.390216,-0.052302
464,-0.059493,0.100821,0.170121
465,-0.093812,-0.27042,0.249287
466,0.157311,-0.24632,0.373198
467,0.044479,0.5443,0.45031
468,-0.347472,0.952417,0.289666
469,-0.54937,0.803388,0.136022
470,-0.430001,0.343296,-0.039933
471,-0.357045,0.141153,-0.018586
472,-0.138974,0.026281,0.05925
473,0.100385,-0.037743,0.113784
474,0.18362,-0.130655,0.120798
475,0.211011,-0.246457,0.130314
476,0.050889,-0.554259,0.225507
477,0.001295,-0.712581,0.259433
478,-0.108112,-0.88289,0.241589
479,-0.245815,-0.899031,0.181339
480,-0.245881,-0.84081,0.125796
481,-0.159498,-0.573828,0.015672
482,0.061617,-0.082769,-0.176446
483,-0.040845,0.346314,-0.380903
484,-0.026113,0.829557,-0.136476
485,-0.07338,0.900238,-0.171595
486,-0.08963,0.614471,-0.457612
487,-0.257022,0.321488,0.055084
488,-0.183274,0.711913,-0.014153
489,-0.369623,-0.055538,0.388733
490,-0.444294,0.137705,0.538074
491,-0.299517,0.60293,0.36676
492,0.077252,0.21929,0.305786
493,0.225534,-0.070469,0.33406
494,0.305199,-0.033718,0.280896
495,0.257557,-0.010771,0.281355
496,-0.039963,0.21161,0.24524
497,-0.155898,0.015935,0.202242
498,-0.144463,-0.203234,0.121355
499,-0.178072,-0.449537,0.231353
500,-0.194914,-0.451248,0.204691
501,-0.230792,-0.474227,0.190522
502,-0.132806,-0.250111,0.174248
503,-0.005044,-0.308406,0.102981
504,0.096095,-0.335464,0.049618
505,0.233405,-0.081828,-0.045954
506,0.207531,0.104614,-0.189205
507,0.194413,0.148315,-0.102911
508,0.062335,0.111297,-0.190817
509,0.108083,0.26174,-0.202761
510,0.318679,0.468275,-0.103359
511,0.419082,0.298648,-0.130912
512,0.331789,0.416379,-0.018444
513,0.215245,0.540869,0.018856
514,-0.011104,-0.007868,0.146778
515,-0.113947,-0.301535,0.175104
516,0.021598,0.018125,0.253587
517,-0.112527,0.709598,0.395741
518,-0.301933,0.841138,0.290311
519,-0.300525,0.776825,0.270696
520,-0.305582,0.423949,0.103955
521,-0.107823,-0.059826,0.034425
522,-0.068955,-0.101186,0.091484
523,-0.018032,-0.170706,0.149747
524,0.025024,-0.264409,0.16018
525,0.059322,-0.262749,0.196355
526,0.047028,-0.638856,0.237259
527,0.018224,-0.695639,0.263933
528,-0.061107,-0.833257,0.245199
529,-0.270018,-0.736143,0.121008
530,-0.255747,-0.664031,0.091168
531,-0.158458,-0.452378,-0.016604
532,0.029576,-0.071286,-0.1373
533,0.030157,0.095457,-0.279129
534,0.126323,0.542105,-0.361885
535,0.12569,0.603238,-0.293672
536,-0.095029,0.366934,-0.306821
537,-0.251138,0.423568,-0.048555
538,-0.228657,0.910234,0.081129
539,-0.491582,0.493338,0.314719
540,-0.526158,-0.104014,0.523916
541,-0.107494,0.202065,0.459537
542,0.087136,0.233634,0.430397
543,0.184553,0.237965,0.406197
544,0.29734,0.174046,0.308841
545,0.084094,-0.021399,0.268327
546,0.002049,-0.09298,0.247482
547,-0.124372,-0.096011,0.212989
548,-0.097376,-0.20332,0.133463
549,-0.084867,-0.233636,0.117877
550,-0.061211,-0.284739,0.144943
551,-0.094754,-0.342675,0.092485
552,-0.065713,-0.467217,0.054189
553,0.028712,-0.5171,0.060401
554,0.080426,-0.272124,0.023648
555,0.044342,-0.171591,-0.050217
556,0.159419,-0.026494,-0.007943
557,0.135978,0.00256,-0.06536
558,0.11072,0.057688,-0.073595
559,0.069421,0.107305,-0.199919
560,0.235333,0.288247,-0.150026
561,0.411355,0.364724,-0.095528
562,0.507391,0.357264,-0.050163
563,0.251747,0.304222,0.040618
564,0.210814,0.062519,0.203072
565,0.03567,-0.215086,0.355025
566,-0.162427,0.005009,0.183032
567,-0.349555,0.752353,0.202294
568,-0.428496,0.928146,0.253178
569,-0.237367,0.4399,0.137416
570,-0.171996,0.310675,0.042743
571,0.053426,0.013947,0.027082
572,0.1005,-0.066374,0.063452
573,0.044796,-0.106059,0.207868
574,-0.004123,-0.29135,0.288638
575,-0.015851,-0.389828,0.341052
576,-0.130413,-0.626736,0.377353
577,-0.274844,-0.784956,0.296091
578,-0.299076,-0.728582,0.23821
579,-0.247793,-0.541385,0.196507
580,-0.151322,-0.302285,-0.013111
581,-0.141219,-0.306485,-0.023903
582,0.111543,0.011353,-0.201327
583,-0.147307,0.461916,-0.301933
584,-0.031811,0.778475,-0.165754
585,-0.058865,0.769745,-0.36246
586,-0.000137,0.037152,-0.608921
587,0.022714,-0.108918,-0.134646
588,0.186837,0.725728,0.099965
589,-0.301984,0.08866,0.355225
590,-0.440145,-0.036789,0.542863
591,-0.438147,0.165471,0.537215
592,0.030725,0.164424,0.327588
593,0.233053,-0.137276,0.450632
594,0.227971,-0.140236,0.441217
595,0.397623,0.112154,0.276354
596,0.048023,0.158329,0.226631
597,-0.019725,0.204957,0.251379
598,-0.149912,-0.321106,0.205362
599,-0.163409,-0.326471,0.175275
600,-0.219243,-0.521142,0.227732
601,-0.221396,-0.395007,0.176758
602,-0.234639,-0.310318,0.156119
603,-0.154147,-0.341645,0.225918
604,0.075585,-0.175463,0.194876
605,0.04315,-0.018992,0.163278
606,0.180577,0.108833,-0.087028
607,0.239955,0.15482,-0.197066
608,0.131025,0.177562,-0.247769
609,0.100789,0.069678,-0.24624
610,0.343816,0.153287,-0.096838
611,0.436619,0.31199,-0.105638
612,0.361802,0.512383,0.050801
613,0.198497,0.358273,0.031049
614,0.158342,0.126411,0.178221
615,-0.053064,-0.217059,0.329403
616,-0.203314,0.24023,0.238232
617,-0.462877,0.77969,0.350028
618,-0.53273,0.829012,0.385247
619,-0.375153,0.511425,0.208715
620,-0.12131,0.227003,0.015946
621,-0.034098,0.120528,-0.028175
622,0.159198,-0.06092,0.059042
623,0.121241,-0.155339,0.121333
624,0.092159,-0.165725,0.160327
625,-0.025584,-0.279365,0.216073
626,-0.09262,-0.400933,0.291878
627,-0.10067,-0.5527,0.291896
628,-0.140206,-0.803358,0.283112
629,-0.224007,-0.689834,0.19388
630,-0.222306,-0.588523,0.140634
631,-0.120249,-0.353048,0.008943
632,0.026106,-0.103577,-0.029027
633,0.117706,0.227852,-0.243198
634,0.02682,0.57942,-0.279533
635,-0.124362,0.675854,-0.32833
636,-0.133713,0.495193,-0.383014
637,-0.165239,0.293924,-0.138269
638,-0.070037,0.66826,-0.126114
639,-0.318423,0.356623,0.265728
640,-0.473025,-0.057999,0.311162
641,-0.326811,-0.231419,0.469996
642,-0.108142,0.212604,0.46418
643,0.184312,0.571969,0.430012
644,0.141258,0.07392,0.374266
645,0.099345,-0.039363,0.310599
646,-0.014981,-0.085024,0.290872
647,-0.083651,0.088885,0.182581
648,-0.057827,0.022826,0.126014
649,0.036598,-0.130455,0.098517
650,0.003185,-0.34028,0.169939
651,-0.029126,-0.397273,0.165811
652,-0.072163,-0.454141,0.104947
653,-0.048689,-0.43229,0.094767
654,-0.006063,-0.347818,0.101023
655,-0.025947,-0.118849,0.152035
656,0.031464,-0.0701,0.106151
657,0.123061,-0.096244,-0.067183
658,0.228755,0.006183,-0.226925
659,0.24317,0.069714,-0.124412
660,0.215819,0.140731,-0.026777
661,0.145866,0.273936,-0.050269
662,0.264938,0.388488,-0.061276
663,0.22653,0.177691,-0.000316
664,0.252049,0.560337,0.065423
665,0.18255,0.17761,0.211682
666,0.035404,-0.078828,0.225973
667,-0.120305,-0.210429,0.140714
668,-0.143134,0.051492,0.18352
669,-0.135278,0.538574,0.309901
670,-0.146725,0.684021,0.329987
671,-0.22999,0.602978,0.278225
672,-0.222501,0.393806,0.053246
673,-0.237163,0.1735,0.048537
674,0.035742,0.005097,0.060074
675,0.084273,-0.028652,0.133419
676,0.083245,-0.087934,0.182538
677,0.057806,-0.230706,0.234881
678,0.023651,-0.349511,0.25069
679,-0.061031,-0.623157,0.278018
680,-0.06212,-0.692044,0.298463
681,-0.080021,-0.710414,0.267742
682,-0.107948,-0.611892,0.202424
683,-0.073839,-0.422049,-0.001138
684,0.01307,-0.177369,-0.176661
685,-0.019356,0.092236,-0.335648
686,0.103982,0.344116,-0.24507
687,0.235648,0.553483,-0.168897
688,0.060182,0.560907,-0.383472
689,-0.162549,0.266196,0.081598
690,-0.166213,0.555245,0.095621
691,-0.12714,0.715743,0.222253
692,-0.477374,-0.094099,0.633229
693,-0.346736,0.16518,0.503657
694,0.18148,0.288101,0.286311
695,0.322119,0.066414,0.418147
696,0.331962,0.154931,0.371398
697,0.052737,0.295002,0.337369
698,-0.058319,0.319733,0.273233
699,-0.166828,0.245698,0.245311
700,-0.061225,-0.261674,0.17584
701,-0.042675,-0.353694,0.214057
702,-0.064473,-0.434567,0.294205
703,-0.232513,-0.441693,0.146335
704,-0.226627,-0.440438,0.119742
705,-0.135992,-0.465629,0.141348
706,0.011856,-0.298296,0.177225
707,0.030369,-0.111031,0.167751
708,0.080003,0.036274,0.092788
709,0.21355,0.113455,-0.086455
710,0.137393,0.228296,-0.168556
711,0.133181,0.181902,-0.11696
712,0.345685,0.126924,-0.106402
713,0.641612,0.339236,-0.10739
714,0.582057,0.295767,-0.144787
715,0.346907,0.459131,-0.019756
716,0.18849,0.199304,0.116699
717,0.004311,-0.120217,0.351131
718,-0.152753,-0.19291,0.332279
719,-0.283273,0.657681,0.373193
720,-0.362964,0.742789,0.393147
721,-0.38885,0.81268,0.369346
722,-0.413812,0.678127,0.14828
723,-0.331381,0.368677,0.019399
724,-0.105255,0.033079,0.004734
725,0.073114,-0.054523,0.066073
726,0.122321,-0.080031,0.114151
727,0.099362,-0.11123,0.177744
728,0.045033,-0.204027,0.266974
729,-0.056714,-0.568453,0.315839
730,-0.11772,-0.695788,0.313649
731,-0.15773,-0.793212,0.248934
732,-0.155957,-0.757514,0.155634
733,-0.143396,-0.592965,-0.001201
734,-0.025411,-0.369828,-0.051373
735,0.154719,-0.030065,-0.149327
736,0.209962,0.285324,-0.290298
737,-0.115648,0.733555,-0.111653
738,-0.138609,0.720534,-0.22346
739,-0.294538,0.502487,-0.23029
740,-0.415684,0.827476,0.058095
741,-0.553641,0.239204,0.249651
742,-0.31808,-0.295252,0.563829
743,-0.167382,-0.048744,0.598064
744,0.081067,0.559035,0.298259
745,0.280197,0.327332,0.281967
746,0.296396,0.135762,0.222853
747,0.215651,-0.129706,0.259693
748,-0.050732,0.039996,0.395923
749,-0.166005,0.027259,0.296991
750,-0.185657,-0.100152,0.172551
751,-0.074215,-0.291258,0.247446
752,-0.089016,-0.376339,0.242982
753,-0.136268,-0.413144,0.225856
754,-0.16676,-0.383508,0.215708
755,-0.117189,-0.385238,0.124588
756,0.005835,-0.237827,0.108628
757,0.22001,-0.053554,-0.058621
758,0.183849,-0.066752,-0.097827
759,0.167123,-0.040825,-0.112664
760,0.101474,0.151117,-0.106447
761,0.170157,0.154653,-0.093591
762,0.452419,0.240576,-0.096401
763,0.353187,0.164832,-0.189461
764,0.228036,0.438045,-0.030143
765,0.202341,0.565578,0.023668
766,0.074654,0.190693,0.193715
767,-0.090959,-0.045264,0.326449
768,-0.126801,0.021046,0.250821
769,-0.204349,0.613617,0.277101
770,-0.28294,0.683838,0.323019
771,-0.346983,0.747373,0.329398
772,-0.312319,0.382344,0.186891
773,-0.196486,0.139292,0.042246
774,-0.10867,-0.046766,0.073659
775,-0.019849,-0.054046,0.08957
776,0.015988,-0.075369,0.135435
777,0.016694,-0.229706,0.179939
778,0.014592,-0.381083,0.225749
779,-0.026588,-0.633379,0.261909
780,-0.074016,-0.761641,0.246364
781,-0.112101,-0.790215,0.202034
782,-0.116221,-0.552483,0.097704
783,-0.079738,-0.466381,0.023461
784,0.026989,-0.279513,-0.127275
785,0.046739,-0.056205,-0.262812
786,-0.015513,0.346751,-0.315558
787,-0.051342,0.685811,-0.07221
788,-0.102864,0.858391,-0.387366
789,-0.14556,0.512587,-0.492804
790,-0.146661,0.571424,-0.024179
791,-0.224907,0.408984,0.265313
792,-0.545357,-0.070332,0.529921
793,-0.235427,0.524636,0.382671
794,-0.025234,0.265669,0.360014
795,0.141565,-0.163908,0.355828
796,0.276507,0.132647,0.249627
797,0.268115,0.192906,0.241766
798,0.030202,0.210427,0.268986
799,-0.152549,0.258426,0.310312
800,-0.12802,-0.013573,0.213892
801,-0.078613,-0.221583,0.175503
802,-0.120393,-0.42005,0.219733
803,-0.163111,-0.545029,0.117931
804,-0.113224,-0.483764,0.124003
805,0.006323,-0.378359,0.230219
806,0.075032,-0.455441,0.191854
807,0.067468,-0.352563,0.051792
808,0.039898,-0.061475,-0.055016
809,0.114013,0.030554,-0.175505
810,0.218041,0.096723,-0.173411
811,0.118515,0.211406,-0.09524
812,0.271613,0.242158,-0.043556
813,0.419892,0.292295,-0.077174
814,0.346077,0.451396,0.041757
815,0.137167,0.560665,0.08115
816,0.030285,0.316613,0.245663
817,-0.174469,-0.170755,0.315408
818,-0.165063,0.157267,0.267719
819,-0.178603,0.586328,0.358188
820,-0.288005,0.787164,0.334123
821,-0.234617,0.593007,0.20317
822,-0.218704,0.461167,0.134787
823,-0.08584,0.159007,-0.040484
824,0.026384,-0.115204,0.059045
825,0.036276,-0.149025,0.151532
826,0.001636,-0.231724,0.209926
827,-0.050335,-0.404853,0.27881
828,-0.062163,-0.5007,0.293948
829,-0.15576,-0.759518,0.335939
830,-0.200563,-0.790279,0.284994
831,-0.172042,-0.733134,0.205388
832,-0.14707,-0.54447,0.068624
833,-0.043286,-0.35478,0.028481
834,0.181396,-0.069053,-0.025842
835,0.249976,0.420819,-0.341102
836,0.085781,0.797289,-0.287671
837,-0.171714,0.726281,-0.287153
838,-0.211612,0.434099,-0.231958
839,-0.094184,0.695696,-0.028313
840,-0.057402,0.759033,0.036718
841,-0.460292,0.015339,0.278281
842,-0.468518,-0.217777,0.464582
843,-0.058994,0.058045,0.391357
844,0.26318,0.31861,0.467016
845,0.244493,0.406228,0.418817
846,-0.011532,0.091731,0.281367
847,-0.066213,-0.017499,0.252686
848,-0.127364,-0.029384,0.301367
849,-0.12267,-0.047897,0.250524
850,-0.069531,-0.135028,0.219213
851,-0.056296,-0.278584,0.264385
852,-0.142622,-0.449037,0.212633
853,-0.169617,-0.461462,0.1838
854,-0.174238,-0.384151,0.232282
855,-0.042432,-0.434884,0.169288
856,0.023113,-0.091439,0.134002
857,0.089849,0.009357,0.05153
858,0.158034,-0.011527,-0.201354
859,0.230534,0.135496,-0.21457
860,0.245993,0.140505,-0.142893
861,0.292545,0.259625,0.003101
862,0.341061,0.452212,-0.113522
863,0.290229,0.431902,-0.115206
864,0.244678,0.520699,0.019338
865,0.006104,-0.065384,0.294757
866,-0.000535,-0.064235,0.308961
867,-0.153189,0.026069,0.320414
868,-0.140237,0.834107,0.327408
869,-0.267569,0.837323,0.334982
870,-0.351118,0.432636,0.256407
871,-0.164516,0.330228,0.010325
872,-0.050554,0.373312,0.037043
873,-0.022719,0.114176,0.027147
874,0.066695,-0.225673,0.154045
875,0.049418,-0.257433,0.252128
876,-0.014533,-0.272006,0.317548
877,-0.090706,-0.385085,0.313856
878,-0.133203,-0.609681,0.304405
879,-0.188693,-0.733854,0.278682
880,-0.242238,-0.739234,0.228628
881,-0.219937,-0.604575,0.14421
882,-0.114218,-0.444597,0.075175
883,0.053992,-0.205956,0.004584
884,0.093444,0.069293,-0.315552
885,0.134147,0.567048,-0.354711
886,0.085776,0.794464,-0.267124
887,-0.042696,0.245255,-0.524187
888,-0.046519,0.244131,-0.527905
889,-0.09902,0.544876,0.103989
890,-0.461203,0.188138,0.279262
891,-0.552755,-0.082161,0.267905
892,-0.403915,0.05441,0.540116
893,0.009697,0.257936,0.396652
894,0.328938,0.238622,0.464569
895,0.36725,0.156368,0.505996
896,0.194281,0.109018,0.289797
897,-0.022707,-0.034241,0.210918
898,-0.13791,0.141923,0.306001
899,-0.178751,-0.097395,0.235593
900,-0.139697,-0.246849,0.17274
901,-0.134682,-0.325946,0.204132
902,-0.077522,-0.439176,0.204446
903,-0.098646,-0.434985,0.14408
904,-0.006132,-0.383433,0.147721
905,0.021325,-0.303641,0.155368
906,-0.009682,-0.207485,0.185648
907,0.052678,-0.033588,0.062163
908,0.148958,0.092673,-0.117661
909,0.161871,0.182214,-0.10975
910,0.112088,0.154519,-0.178225
911,0.303314,0.134218,-0.054489
912,0.52419,0.289636,0.002093
913,0.398701,0.357798,-0.036635
914,0.192828,0.377919,0.01954
915,0.021211,0.251512,0.17776
916,-0.045387,-0.093845,0.335373
917,-0.052807,-0.120989,0.278082
918,-0.110412,0.512398,0.377134
919,-0.38333,0.720602,0.464718
920,-0.449763,0.719239,0.417618
921,-0.464284,0.638138,0.187976
922,-0.138998,0.198866,-0.025944
923,0.043287,0.088633,-0.003514
924,0.161464,-0.142832,0.118352
925,0.105414,-0.218964,0.182058
926,0.069581,-0.246432,0.267041
927,-0.041382,-0.478126,0.330626
928,-0.098238,-0.645036,0.316059
929,-0.095793,-0.729303,0.317734
930,-0.109375,-0.787418,0.269788
931,-0.116175,-0.71081,0.136428
932,0.012609,-0.409609,0.003778
933,0.167365,-0.059152,-0.151743
934,-0.009221,0.194191,-0.149234
935,-0.045773,0.380371,-0.087063
936,-0.179462,0.612994,-0.090522
937,-0.185478,0.532421,-0.4031
938,-0.096218,0.038617,-0.570751
939,-0.05793,-0.169059,0.278236
940,0.127618,0.564602,0.311387
941,-0.30867,0.191022,0.507552
942,-0.705965,0.36792,0.701839
943,-0.505904,1.146211,0.285278
944,0.349516,-0.307852,0.308809
945,0.415635,-0.343054,0.354874
946,0.499332,-0.104883,0.351482
947,0.251822,0.127553,0.336763
948,0.026923,0.553516,0.266678
949,-0.115842,0.528228,0.224061
950,-0.098435,-0.170008,0.199276
951,-0.191202,-0.528638,0.361596
952,-0.34103,-0.673585,0.31639
953,-0.420042,0.05839,0.295892
954,-0.333197,-0.010087,0.272604
955,-0.160205,-0.232382,0.208563
956,0.121648,-0.515062,0.071415
957,0.099922,-0.355027,-0.011415
958,0.136535,-0.147298,-0.089289
959,0.211166,0.066374,-0.178527
960,0.189838,0.106533,-0.159978
961,0.220658,0.19063,-0.029319
962,0.554403,0.349481,-0.115154
963,0.51088,0.284263,-0.093636
964,0.395897,0.346028,0.254962
965,0.222096,0.213867,0.372097
966,0.003858,0.016464,0.475654
967,-0.340846,0.582641,0.224038
968,-0.443193,0.857358,0.27696
969,-0.438317,0.874755,0.384388
970,-0.138342,0.403584,0.235826
971,0.058985,0.306737,0.125671
972,0.045735,0.240839,0.08916
973,0.039437,-0.006083,0.072351
974,0.056799,-0.082869,0.076407
975,0.033907,-0.200386,0.136666
976,-0.087381,-0.468334,0.279759
977,-0.195897,-0.756636,0.299219
978,-0.166244,-0.741551,0.354713
979,-0.086959,-0.875133,0.29317
980,-0.07251,-0.780226,0.274821
981,-0.068705,-0.611463,0.126206
982,0.033307,-0.3566,-0.144329
983,0.139154,-0.021508,-0.160674
984,0.027327,0.569482,-0.139019
985,0.021429,0.949168,-0.015392
986,-0.097054,0.716093,-0.444294
987,-0.066866,0.21068,-0.428506
988,-0.049806,0.637244,0.253688
989,0.027868,0.961572,0.478489
990,-0.498932,-0.085009,0.433515
991,-0.45178,-0.182896,0.55724
992,-0.159407,0.195719,0.371312
993,0.248577,0.227086,0.338854
994,0.225267,0.145615,0.379486
995,0.198332,0.177458,0.324534
996,0.091343,0.138647,0.273986
997,-0.055849,0.097179,0.263191
998,-0.131676,-0.239541,0.192326
999,-0.123352,-0.314804,0.172138
1000,-0.135184,-0.382743,0.200891
1001,-0.131622,-0.423673,0.22617
1002,-0.202849,-0.362307,0.166776
1003,-0.106617,-0.375295,0.194672
1004,0.037667,-0.289345,0.137618
1005,0.0487,-0.161517,0.116657
1006,0.061163,0.189476,-0.042067
1007,0.06566,0.178198,-0.013587
1008,0.081563,0.093068,-0.172356
1009,0.304642,0.172745,-0.111657
1010,0.467388,0.261343,-0.046198
1011,0.470166,0.2161,-0.098688
1012,0.261146,0.458118,0.068027
1013,0.110826,0.488652,0.099287
1014,-0.110842,0.008181,0.306361
1015,-0.019092,-0.23581,0.333709
1016,0.017643,0.432944,0.48652
1017,-0.184813,0.852594,0.487241
1018,-0.422659,1.031418,0.407152
1019,-0.444692,0.882297,0.340043
1020,-0.367387,0.451194,0.194549
1021,-0.075864,0.047719,0.055272
1022,0.001608,0.006661,0.108869
1023,0.085753,-0.044999,0.181918
1024,0.071853,-0.181642,0.283084
1025,0.063098,-0.272707,0.303332
1026,-0.055263,-0.688693,0.345812
1027,-0.111004,-0.807897,0.360989
1028,-0.146443,-0.860489,0.34303
1029,-0.229452,-0.793133,0.208214
1030,-0.147787,-0.54979,0.073322
1031,-0.020583,-0.189191,-0.061147
1032,0.127764,0.14314,-0.353875
1033,0.145554,0.513797,-0.294796
1034,0.035163,0.733579,-0.103848
1035,-0.049783,0.752445,-0.313733
1036,-0.197794,0.190219,-0.464911
1037,-0.307025,0.333951,0.079212
1038,-0.121914,0.712458,0.068034
1039,-0.520541,-0.173488,0.449117
1040,-0.477576,0.135379,0.759549
1041,-0.260837,0.768691,0.541507
1042,0.140984,0.368723,0.362075
1043,0.295664,-0.097835,0.47799
1044,0.358113,-0.101151,0.349531
1045,0.15152,-0.152654,0.337515
1046,-0.070734,0.105861,0.324614
1047,-0.178132,0.082972,0.255804
1048,-0.115701,-0.077291,0.167047
1049,-0.099258,-0.271255,0.311251
1050,-0.147419,-0.354795,0.259954
1051,-0.244387,-0.482908,0.160716
1052,-0.198679,-0.443687,0.155027
1053,-0.057599,-0.271796,0.246875
1054,0.107698,-0.222457,0.125547
1055,0.123569,-0.171461,0.049094
1056,0.133459,-0.001441,-0.2584
1057,0.179571,0.132857,-0.122101
1058,0.156788,0.139206,-0.072859
1059,0.123095,0.064995,-0.088052
1060,0.342677,0.332908,-0.00936
1061,0.339824,0.272201,-0.072753
1062,0.272599,0.32452,0.020604
1063,0.155399,0.36433,0.155689
1064,0.017565,0.031539,0.295535
1065,0.013808,-0.080124,0.351306
1066,-0.111055,0.248454,0.382485
1067,-0.337076,0.828265,0.425744
1068,-0.396408,0.757483,0.483393
1069,-0.293132,0.518457,0.278515
1070,-0.123296,0.337054,0.010212
1071,-0.060761,0.164199,0.057169
1072,0.039845,-0.013132,0.106236
1073,0.070367,-0.094779,0.18234
1074,0.01669,-0.257233,0.237792
1075,-0.016017,-0.336151,0.30675
1076,-0.063665,-0.588001,0.322141
1077,-0.092027,-0.640852,0.351819
1078,-0.14881,-0.772114,0.302166
1079,-0.189633,-0.744511,0.229616
1080,-0.160316,-0.618361,0.143681
1081,-0.069419,-0.3575,0.057126
1082,0.073502,-0.072701,-0.031491
1083,0.019408,0.27907,-0.243323
1084,0.02628,0.703684,-0.16797
1085,0.012048,0.767144,-0.202889
1086,-0.123333,0.469064,-0.439205
1087,-0.143194,0.156709,-0.156894
1088,-0.032756,0.633217,0.020878
1089,-0.117515,0.4269,0.289974
1090,-0.367431,-0.022542,0.397119
1091,-0.464131,0.270718,0.485134
1092,-0.042921,0.37018,0.450928
1093,0.141548,0.283131,0.466631
1094,0.365392,0.090259,0.431183
1095,0.205515,0.0701,0.334012
1096,-0.068687,0.067968,0.310913
1097,-0.149143,-0.006243,0.295881
1098,-0.127534,-0.139219,0.226413
1099,-0.096996,-0.257942,0.286382
1100,-0.123759,-0.393321,0.243016
1101,-0.184717,-0.515676,0.157482
1102,-0.108583,-0.465505,0.220524
1103,-0.053569,-0.255537,0.270843
1104,-0.020901,-0.177244,0.201239
1105,0.025249,0.010212,0.136011
1106,0.064804,0.010387,0.007922
1107,0.163204,0.067725,-0.143687
1108,0.183876,0.103436,-0.2042
1109,0.175613,0.064113,-0.079937
1110,0.358107,0.254477,-0.005704
1111,0.325655,0.309318,-0.101783
1112,0.280432,0.290446,-0.089906
1113,0.166065,0.398529,0.06276
1114,0.053088,0.045127,0.326364
1115,0.026114,-0.219466,0.33533
1116,-0.007136,0.031797,0.386876
1117,-0.247144,0.760531,0.559235
1118,-0.417876,0.861599,0.513056
1119,-0.442234,0.743741,0.371397
1120,-0.336219,0.420802,0.088198
1121,-0.164567,0.228255,0.039175
1122,-0.048559,0.129982,0.06768
1123,0.103605,-0.028364,0.127039
1124,0.087932,-0.122915,0.200656
1125,0.051639,-0.277522,0.24581
1126,-0.023965,-0.422588,0.280667
1127,-0.04686,-0.673281,0.347528
1128,-0.07259,-0.816039,0.35507
1129,-0.144501,-0.87312,0.286327
1130,-0.198587,-0.735989,0.193718
1131,-0.146455,-0.489725,0.095568
1132,-0.02655,-0.198511,-0.015397
1133,-0.020206,0.08641,-0.179011
1134,-0.056143,0.661377,-0.083824
1135,-0.166715,1.123112,-0.145045
1136,-0.222253,0.73447,-0.414569
1137,-0.1739,0.172384,-0.146203
1138,-0.036779,0.676009,0.082629
1139,-0.209058,0.516394,0.288537
1140,-0.430735,-0.031093,0.536813
1141,-0.263127,0.055162,0.483429
1142,0.080989,0.242051,0.470331
1143,0.375367,0.319474,0.47315
1144,0.392038,0.245314,0.329799
1145,0.087808,-0.046464,0.327331
1146,-0.080865,-0.009174,0.348527
1147,-0.167048,-0.006637,0.296882
1148,-0.109704,-0.099535,0.22781
1149,-0.086957,-0.145454,0.268504
1150,-0.093458,-0.186407,0.257671
1151,-0.137968,-0.286115,0.213995
1152,-0.194562,-0.33022,0.177036
1153,-0.125881,-0.411522,0.198964
1154,-0.00935,-0.393087,0.12758
1155,0.087075,-0.263196,0.046494
1156,0.075894,-0.043987,0.090183
1157,0.037369,-0.026868,-0.019137
1158,0.10486,0.006775,-0.0082
1159,0.130261,0.078528,-0.136324
1160,0.180687,0.183004,-0.071074
1161,0.408725,0.409508,-0.090809
1162,0.410851,0.351449,-0.110661
1163,0.216753,0.599751,0.013948
1164,0.108389,0.342255,0.204056
1165,0.018413,-0.021048,0.319704
1166,-0.066707,-0.277702,0.303697
1167,-0.072882,-0.039479,0.348859
1168,-0.178225,0.399932,0.462721
1169,-0.407232,0.776326,0.403841
1170,-0.41739,0.783671,0.432561
1171,-0.142888,0.343901,0.099102
1172,-0.099645,0.173062,0.068198
1173,0.019886,0.04441,0.111601
1174,0.025149,-0.015634,0.157919
1175,0.009739,-0.086265,0.224826
1176,-0.011687,-0.305015,0.308947
1177,-0.038002,-0.512662,0.367981
1178,-0.10576,-0.729744,0.352003
1179,-0.130246,-0.767344,0.320324
1180,-0.150425,-0.742412,0.224506
1181,-0.142702,-0.603798,0.166273
1182,-0.105568,-0.374293,0.078458
1183,-0.065639,-0.134848,-0.094042
1184,-0.112212,0.203126,-0.18155
1185,-0.13254,0.69806,-0.129914
1186,0.013801,0.737365,-0.27259
1187,-0.085331,0.520747,-0.480851
1188,-0.106745,0.200864,-0.098489
1189,0.088916,0.706957,0.171979
1190,-0.088618,0.51514,0.371212
1191,-0.303129,-0.012124,0.333721
1192,-0.222682,-0.108834,0.357496
1193,-0.096213,-0.009429,0.423892
1194,0.327109,0.401739,0.512848
1195,0.289623,0.401657,0.407875
1196,-0.018962,0.043696,0.294217
1197,-0.08457,-0.009187,0.262433
1198,-0.103632,-0.075055,0.289662
1199,-0.039184,-0.102924,0.291759
1200,-0.034879,-0.143344,0.315993
1201,-0.087984,-0.315508,0.29394
1202,-0.255545,-0.439793,0.209113
1203,-0.297478,-0.507798,0.201743
1204,-0.148024,-0.465468,0.33359
1205,-0.042714,-0.180002,0.326076
1206,-0.019607,0.076583,0.203328
1207,-0.036431,0.038328,-0.093273
1208,0.03082,0.073184,-0.19114
1209,0.392549,0.089201,-0.260331
1210,0.473811,0.098477,-0.036444
1211,0.44583,0.294911,0.064797
1212,0.295918,0.409735,-0.073874
1213,0.14118,0.597716,0.063859
1214,0.096663,0.319668,0.227287
1215,0.001996,-0.00668,0.296549
1216,-0.027772,-0.243378,0.350361
1217,-0.119527,-0.007009,0.276097
1218,-0.28773,0.73645,0.374212
1219,-0.438244,0.814378,0.461399
1220,-0.316912,0.714344,0.309291
1221,-0.134825,0.450951,0.040316
1222,-0.017834,0.243126,0.026971
1223,0.03573,0.023661,0.088499
1224,0.016878,-0.093805,0.127144
1225,-0.021678,-0.10038,0.214008
1226,-0.143667,-0.238817,0.289512
1227,-0.178957,-0.437432,0.328512
1228,-0.227322,-0.716055,0.338465
1229,-0.157961,-0.760419,0.360015
1230,-0.073164,-0.749713,0.301878
1231,-0.034343,-0.674494,0.226261
1232,0.015263,-0.474238,0.073819
1233,0.05962,-0.160977,-0.074925
1234,0.089782,0.171378,-0.129718
1235,-0.003548,0.730587,-0.11558
1236,-0.030777,0.746076,-0.048501
1237,-0.100145,0.675783,-0.137
1238,-0.328266,0.398898,-0.217761
1239,-0.115411,0.760397,0.113413
1240,-0.287393,0.075955,0.399724
1241,-0.320093,-0.071286,0.609221
1242,-0.286395,0.115779,0.565584
1243,0.105513,0.241774,0.480164
1244,0.214908,0.217649,0.497733
1245,0.237376,0.194072,0.455018
1246,-0.009332,0.014348,0.414422
1247,-0.150533,0.037664,0.403599
1248,-0.208688,0.028677,0.345909
1249,-0.09856,-0.088262,0.229052
1250,-0.061736,-0.133468,0.273445
1251,-0.038436,-0.17048,0.286511
1252,-0.089038,-0.321924,0.228029
1253,-0.094081,-0.346415,0.220337
1254,-0.060274,-0.353992,0.233425
1255,-0.017586,-0.390809,0.164754
1256,-0.005727,-0.328825,0.117202
1257,0.005369,-0.078953,0.045926
1258,0.035589,-0.024258,-0.086121
1259,0.039917,0.063523,-0.008438
1260,0.03098,0.10676,-0.135073
1261,0.235396,0.270555,-0.038759
1262,0.440842,0.407007,-0.086135
1263,0.39104,0.379194,-0.128743
1264,0.233093,0.708134,0.029309
1265,0.148228,0.321995,0.259518
1266,0.080491,0.199914,0.317862
1267,-0.089615,-0.124927,0.367932
1268,-0.295798,0.284258,0.279067
1269,-0.403012,0.647466,0.361665
1270,-0.374861,0.644593,0.42305
1271,-0.147141,0.367501,0.244062
1272,-0.033986,0.272185,0.160214
1273,0.008007,0.105408,0.052848
1274,-0.012075,-0.025537,0.147126
1275,-0.030752,-0.021023,0.190152
1276,-0.078328,-0.143466,0.295323
1277,-0.062971,-0.53033,0.410864
1278,-0.065855,-0.66938,0.428336
1279,-0.069151,-0.725535,0.439115
1280,-0.213462,-0.714626,0.278519
1281,-0.243182,-0.662001,0.230369
1282,-0.22476,-0.576173,0.161433
1283,-0.013141,-0.154712,-0.020799
1284,0.039699,-0.038094,-0.045865
1285,0.07201,0.74114,-0.157334
1286,0.010355,0.910791,-0.202372
1287,-0.014901,0.801257,-0.282325
1288,-0.033134,0.086485,-0.377714
1289,0.002191,0.350912,0.048147
1290,0.226242,0.676621,0.129128
1291,-0.330131,-0.228814,0.419693
1292,-0.470721,-0.34079,0.493434
1293,-0.482227,0.213044,0.571667
1294,0.201806,0.630462,0.451463
1295,0.284926,0.142985,0.495307
1296,0.261608,0.053076,0.486165
1297,0.004999,-0.073538,0.389269
1298,-0.122851,0.101418,0.314626
1299,-0.171851,0.020916,0.196959
1300,-0.147337,-0.040519,0.312639
1301,-0.062939,-0.312716,0.334839
1302,-0.145761,-0.486199,0.330101
1303,-0.218609,-0.69218,0.271631
1304,-0.209638,-0.359917,0.25277
1305,-0.111851,-0.178118,0.22345
1306,0.131043,-0.080971,0.081853
1307,0.177221,-0.078199,0.060085
1308,0.138528,-0.042692,-0.09553
1309,0.16434,-0.013005,-0.084508
1310,0.172282,0.038117,-0.149405
1311,0.157754,0.085284,-0.099255
1312,0.42711,0.443412,0.025738
1313,0.317505,0.4152,0.029972
1314,0.233591,0.705896,0.097533
1315,0.198714,0.301307,0.327707
1316,0.082365,0.105544,0.477045
1317,0.046501,0.041392,0.498357
1318,-0.383437,0.491985,0.334627
1319,-0.526581,0.723954,0.381632
1320,-0.501757,0.696055,0.47187
1321,-0.174241,0.369317,0.204458
1322,0.057195,0.317393,0.028109
1323,0.051292,0.213238,0.081425
1324,0.025966,-0.078673,0.142488
1325,-0.008974,-0.196907,0.204193
1326,-0.060068,-0.363029,0.316486
1327,-0.008708,-0.404333,0.358837
1328,-0.04589,-0.668333,0.392042
1329,-0.084289,-0.714625,0.382285
1330,-0.132229,-0.780953,0.33569
1331,-0.24144,-0.62616,0.19259
1332,-0.219953,-0.486633,0.102491
1333,-0.184904,-0.332796,0.006886
1334,-0.046014,0.290691,-0.264959
1335,0.116363,0.54026,-0.199863
1336,0.220989,0.698396,-0.122188
1337,0.162861,0.800249,-0.378433
1338,-0.106966,0.257863,-0.429706
1339,-0.205661,0.639664,0.128386
1340,-0.089983,0.792594,0.223132
1341,-0.474564,-0.206854,0.394871
1342,-0.352786,-0.084147,0.713808
1343,-0.10312,0.64866,0.589498
1344,0.283019,0.849885,0.429371
1345,0.245421,0.182563,0.439113
1346,0.115883,-0.067476,0.391667
1347,-0.095428,-0.171,0.439705
1348,-0.194218,0.005115,0.424538
1349,-0.196152,-0.06776,0.286561
1350,-0.17455,-0.103681,0.246846
1351,-0.079377,-0.221709,0.345919
1352,-0.13582,-0.359283,0.262757
1353,-0.195361,-0.488286,0.265554
1354,-0.139043,-0.333589,0.318768
1355,-0.056139,-0.294191,0.194407
1356,0.073798,-0.217227,0.12873
1357,0.126497,-0.037184,0.028583
1358,0.105798,0.018662,-0.109086
1359,0.10926,0.091835,-0.082765
1360,0.092838,0.178939,-0.093429
1361,0.186369,0.195191,-0.03385
1362,0.339704,0.311957,-0.041907
1363,0.275834,0.299682,0.00101
1364,0.084647,0.587195,0.195847
1365,0.061165,0.418194,0.258663
1366,0.063768,0.240453,0.305117
1367,-0.037559,-0.216087,0.282022
1368,-0.084114,-0.021719,0.360944
1369,-0.173121,0.392208,0.526974
1370,-0.40892,0.742941,0.370952
1371,-0.357315,0.727257,0.310248
1372,-0.257385,0.574996,0.199436
1373,0.029917,0.135348,0.131239
1374,0.057256,0.00617,0.183955
1375,0.055289,-0.096556,0.231144
1376,-0.070374,-0.33798,0.27781
1377,-0.054927,-0.330398,0.292668
1378,-0.027734,-0.348717,0.318424
1379,-0.054681,-0.699542,0.386152
1380,-0.069372,-0.721438,0.35283
1381,-0.213223,-0.677241,0.240811
1382,-0.217038,-0.479147,0.170275
1383,-0.164766,-0.360133,0.073611
1384,-0.067661,0.086784,-0.128414
1385,0.022371,0.645684,-0.219816
1386,0.133241,0.803178,-0.124166
1387,0.053472,0.636158,-0.333917
1388,-0.075664,0.154905,-0.487533
1389,-0.103287,-0.055492,-0.437828
1390,0.057088,0.792204,0.2044
1391,0.148175,0.870234,0.227905
1392,-0.448689,-0.117204,0.508775
1393,-0.5162,0.531402,0.657431
1394,-0.024601,0.476247,0.357363
1395,0.276846,-0.04941,0.530668
1396,0.40031,0.007582,0.524634
1397,0.134266,0.019502,0.444301
1398,-0.134803,-0.001844,0.35196
1399,-0.217475,0.093092,0.357493
1400,-0.159928,-0.08255,0.225101
1401,-0.113839,-0.202214,0.302104
1402,-0.078945,-0.309574,0.335606
1403,-0.138838,-0.34648,0.267604
1404,-0.215654,-0.325202,0.305839
1405,-0.149613,-0.245695,0.294131
1406,-0.026036,-0.23574,0.202055
1407,0.056661,-0.238656,0.107545
1408,0.180544,-0.095741,-0.024523
1409,0.138024,0.02856,-0.03462
1410,0.124061,0.131006,0.009439
1411,0.087354,0.12906,-0.037693
1412,0.321949,0.349166,-0.00584
1413,0.336319,0.268024,-0.007613
1414,0.331017,0.219326,0.011382
1415,0.097166,0.393706,0.030495
1416,0.091113,0.394536,0.032463
1417,-0.024671,-0.072817,0.357918
1418,-0.014641,-0.26204,0.417726
1419,0.03527,0.261369,0.53497
1420,-0.304072,0.885323,0.528772
1421,-0.52467,0.947394,0.510551
1422,-0.469234,0.710778,0.234605
1423,-0.284339,0.388014,0.027493
1424,-0.033245,0.17755,0.086009
1425,0.103304,-0.025416,0.187715
1426,0.092314,-0.205522,0.266794
1427,0.073273,-0.30405,0.316543
1428,0.045263,-0.346608,0.349303
1429,-0.060175,-0.732891,0.369172
1430,-0.15069,-0.815003,0.343259
1431,-0.176225,-0.813495,0.32549
1432,-0.240441,-0.637825,0.195365
1433,-0.208693,-0.523943,0.141155
1434,-0.090218,-0.250039,0.018909
1435,0.043261,0.250549,-0.240757
1436,0.034226,0.516745,-0.240035
1437,0.110732,0.857002,0.023762
1438,-0.094965,0.559735,-0.384164
1439,-0.186579,0.35448,-0.346104
1440,-0.216751,0.489679,-0.063695
1441,-0.336373,0.275524,0.436327
1442,-0.472477,-0.057478,0.557684
1443,-0.369117,0.152546,0.43434
1444,0.028968,0.074195,0.483009
1445,0.294011,0.140298,0.556164
1446,0.472288,0.373768,0.461759
1447,0.429817,0.320881,0.342071
1448,-0.062476,-0.007073,0.386824
1449,-0.143149,0.153898,0.425038
1450,-0.152367,0.016039,0.353539
1451,-0.127042,-0.13119,0.309051
1452,-0.124462,-0.219437,0.345878
1453,-0.199346,-0.291018,0.274507
1454,-0.250013,-0.447639,0.248164
1455,-0.163903,-0.520525,0.216833
1456,-0.039928,-0.475705,0.236972
1457,0.073331,-0.307034,0.193705
1458,0.073971,-0.193698,0.141405
1459,0.151778,0.046227,0.034761
1460,0.11897,0.094045,-0.004145
1461,0.106542,0.138285,-0.079723
1462,0.146273,0.143572,-0.020644
1463,0.459255,0.473287,-0.05615
1464,0.457661,0.472834,-0.06215
1465,0.412115,0.726647,-0.018943
1466,0.362192,0.284041,0.204606
1467,0.357771,0.285039,0.211192
1468,0.006384,-0.107333,0.481891
1469,-0.216364,-0.064409,0.342802
1470,-0.288385,0.184852,0.363185
1471,-0.452038,0.589884,0.550158
1472,-0.277327,0.552807,0.352754
1473,-0.20882,0.469136,0.274621
1474,-0.042216,0.297508,0.195885
1475,0.028759,0.068954,0.166847
1476,0.124506,-0.141654,0.207989
1477,0.136366,-0.252712,0.210155
1478,0.094458,-0.331846,0.302669
1479,0.027825,-0.44413,0.360278
1480,-0.059211,-0.626418,0.419355
1481,-0.137742,-0.687744,0.407558
1482,-0.16371,-0.689973,0.423122
1483,-0.168688,-0.548958,0.312915
1484,-0.150148,-0.396803,0.199505
1485,-0.120348,-0.051591,0.001143
1486,-0.118008,0.434833,-0.050433
1487,-0.010502,0.830348,-0.145806
1488,0.073611,0.865355,-0.122993
1489,0.205704,0.29409,-0.425775
1490,0.193747,0.125546,-0.357628
1491,0.246595,0.782974,0.027681
1492,-0.054171,0.58068,0.319331
1493,-0.361865,0.1604,0.332493
1494,-0.479933,-0.060443,0.592372
1495,-0.158221,0.510856,0.534923
1496,0.204922,0.444168,0.619588
1497,0.179712,0.063189,0.53797
1498,-0.021924,-0.121514,0.358588
1499,-0.041017,-0.020433,0.391783
1500,-0.032089,-0.028766,0.421923
1501,-0.032012,-0.111235,0.356163
1502,-0.040141,-0.171069,0.348953
1503,-0.049648,-0.19721,0.332122
1504,-0.138326,-0.293871,0.200512
1505,-0.15839,-0.469367,0.151384
1506,-0.026086,-0.534362,0.214335
1507,0.07523,-0.19937,0.28025
1508,0.05303,0.0467,0.20133
1509,0.17213,-0.046601,0.048268
1510,0.187765,-0.060695,-0.044909
1511,0.197058,0.069099,-0.127674
1512,0.247926,0.056011,-0.081597
1513,0.303424,0.136913,0.031107
1514,0.48661,0.38845,0.031331
1515,0.402946,0.426773,-0.009853
1516,0.253727,0.49639,0.106526
1517,0.232102,0.247308,0.294968
1518,0.085679,0.001902,0.425169
1519,-0.086985,-0.10174,0.532765
1520,-0.308129,0.195005,0.44418
1521,-0.5207,0.739057,0.550028
1522,-0.621083,0.863582,0.566029
1523,-0.406506,0.531088,0.438073
1524,-0.152731,0.327805,0.151835
1525,0.061406,0.072023,0.06078
1526,0.13816,0.002877,0.115172
1527,0.135958,-0.137772,0.172166
1528,0.058166,-0.268643,0.267483
1529,0.043217,-0.316415,0.309053
1530,0.014983,-0.513351,0.390306
1531,-0.073315,-0.765364,0.365123
1532,-0.155469,-0.76832,0.303171
1533,-0.208559,-0.665876,0.215592
1534,-0.151315,-0.46336,0.128962
1535,-0.039946,-0.205754,0.027511
1536,0.09721,0.055281,-0.184416
1537,0.14962,0.639488,-0.166487
1538,0.104975,0.970228,0.029724
1539,-0.037664,0.820358,-0.298518
1540,-0.232441,0.342839,-0.263714
1541,-0.169167,0.588044,-0.129242
1542,-0.261906,0.402078,0.310037
1543,-0.471358,0.002657,0.43905
1544,-0.420035,0.07891,0.579065
1545,-0.015079,0.120981,0.519865
1546,0.226882,0.167931,0.563081
1547,0.204783,0.235692,0.464574
1548,0.100589,0.155005,0.40651
1549,-0.006037,0.023261,0.399007
1550,-0.163476,0.020428,0.447195
1551,-0.144575,-0.101908,0.35768
1552,-0.115307,-0.13177,0.286973
1553,0.004,-0.151414,0.312286
1554,-0.018025,-0.155557,0.285345
1555,-0.130934,-0.308729,0.20603
1556,-0.062232,-0.460524,0.201249
1557,-0.029842,-0.451196,0.188137
1558,-0.002581,-0.424125,0.201044
1559,-0.015381,0.114519,0.120027
1560,0.038979,0.050953,-0.021759
1561,0.080627,0.042204,-0.094894
1562,0.222437,0.081205,-0.084519
1563,0.236022,0.113927,0.025287
1564,0.365737,0.346588,0.044063
1565,0.348702,0.39759,-0.014127
1566,0.251162,0.456953,0.067572
1567,0.082998,0.547966,0.081526
1568,0.089669,0.135211,0.389385
1569,0.03099,-0.125853,0.516349
1570,-0.197172,0.334703,0.462013
1571,-0.465435,0.866207,0.445477
1572,-0.552364,0.812082,0.492045
1573,-0.340628,0.519971,0.211323
1574,-0.045446,0.360859,0.036552
1575,0.029182,0.072193,0.092287
1576,0.11528,-0.090318,0.137374
1577,0.104047,-0.125392,0.160024
1578,0.105096,-0.119362,0.249282
1579,0.031298,-0.251315,0.359584
1580,-0.030932,-0.609786,0.412295
1581,-0.036869,-0.6863,0.432843
1582,-0.192228,-0.764509,0.335397
1583,-0.256388,-0.729327,0.25803
1584,-0.254054,-0.569332,0.203218
1585,-0.148043,-0.35697,0.098783
1586,0.000831,-0.112165,-0.048918
1587,0.093053,0.327159,-0.197688
1588,0.211198,0.840477,-0.030432
1589,0.118376,0.926708,-0.155208
1590,-0.200012,0.418525,-0.367622
1591,-0.33544,0.528018,-0.014403
1592,-0.225105,0.447035,0.35204
1593,-0.325994,0.143121,0.373402
1594,-0.358752,-0.010937,0.393084
1595,-0.03413,0.025195,0.535156
1596,-0.034255,0.029218,0.543073
1597,0.336391,0.278589,0.559896
1598,0.112515,0.21873,0.354107
1599,0.008822,0.087812,0.355215
1600,-0.06438,0.005102,0.344313
1601,-0.083696,0.034987,0.408915
1602,-0.083866,-0.036677,0.37314
1603,0.009935,-0.172468,0.381702
1604,-0.021316,-0.239566,0.348854
1605,-0.072016,-0.306745,0.284075
1606,-0.218857,-0.509321,0.180407
1607,-0.218693,-0.403614,0.212598
1608,-0.123831,-0.291058,0.178692
1609,0.039738,-0.116414,0.138957
1610,0.10062,0.072572,0.102381
1611,0.051026,-0.06942,-0.02745
1612,0.112145,0.042046,-0.057622
1613,0.144393,0.223521,0.011837
1614,0.305629,0.214824,0.127281
1615,0.291494,0.34926,0.014734
1616,0.256274,0.377007,0.082158
1617,0.325722,0.559463,0.159795
1618,0.225602,0.113412,0.331585
1619,0.134817,0.014459,0.422618
1620,-0.099005,-0.049331,0.374928
1621,-0.448415,0.841986,0.458996
1622,-0.472918,0.709823,0.515976
1623,-0.315996,0.478195,0.348507
1624,-0.128893,0.436321,0.152133
1625,-0.001601,0.266527,0.058268
1626,0.023347,0.131984,0.120792
1627,-0.035144,-0.097852,0.228074
1628,-0.144541,-0.223963,0.364473
1629,-0.151417,-0.42215,0.41636
1630,-0.05841,-0.479318,0.376999
1631,-0.02596,-0.585642,0.399873
1632,-0.03582,-0.671847,0.331503
1633,-0.108631,-0.654018,0.285722
1634,-0.127822,-0.525372,0.178765
1635,-0.092737,-0.326753,0.065088
1636,-0.026505,-0.212845,0.00623
1637,0.008076,0.239298,-0.199496
1638,0.008486,0.236946,-0.20484
1639,0.073903,0.729823,0.038759
1640,-0.132025,0.669154,-0.298017
1641,-0.257541,0.564968,-0.021785
1642,-0.273494,0.734876,0.135248
1643,-0.468144,0.278133,0.4715
1644,-0.471353,0.016574,0.506773
1645,-0.214146,0.00767,0.628629
1646,0.106052,0.152781,0.520029
1647,0.36763,0.366952,0.571477
1648,0.39753,0.419014,0.413737
1649,0.139359,0.085477,0.386663
1650,-0.051835,-0.020068,0.429561
1651,-0.134995,0.051883,0.422653
1652,-0.144863,-0.054553,0.277309
1653,-0.07327,-0.155544,0.22931
1654,-0.032935,-0.199982,0.324593
1655,-0.050337,-0.299337,0.293883
1656,-0.109295,-0.391111,0.239984
1657,-0.092996,-0.452782,0.22233
1658,0.001654,-0.373136,0.199443
1659,0.060437,-0.235368,0.153399
1660,0.092891,-0.030452,0.128188
1661,0.032476,0.040788,0.077601
1662,0.017483,0.070259,0.107413
1663,0.029345,0.08584,-0.051235
1664,0.331017,0.240254,0.074701
1665,0.469434,0.400882,0.017908
1666,0.38949,0.390913,0.026017
1667,0.278087,0.561423,0.066399
1668,0.126851,0.231958,0.246157
1669,0.058954,0.014094,0.38488
1670,-0.062761,-0.208413,0.491148
1671,-0.221612,0.172239,0.490716
1672,-0.467468,0.817476,0.53838
1673,-0.506486,0.876569,0.570592
1674,-0.299018,0.645021,0.308836
1675,-0.03847,0.397128,0.178333
1676,0.015793,0.148222,0.132185
1677,0.095727,-0.035494,0.170317
1678,0.060668,-0.087635,0.211785
1679,0.012128,-0.12802,0.244833
1680,-0.027612,-0.193291,0.274315
1681,-0.026112,-0.259306,0.334606
1682,-0.047763,-0.656992,0.414147
1683,-0.060255,-0.724685,0.413595
1684,-0.143975,-0.741586,0.329484
1685,-0.182635,-0.576117,0.248959
1686,-0.136793,-0.496799,0.227004
1687,-0.09244,-0.381843,0.204639
1688,0.080405,0.088392,-0.038459
1689,0.078249,0.463369,-0.133115
1690,0.031343,1.068677,-0.055744
1691,-0.144032,0.57705,-0.324912
1692,-0.102358,0.123284,-0.297803
1693,-0.078906,0.08251,0.083706
1694,-0.048783,0.419918,0.492791
1695,-0.265582,0.089665,0.435441
1696,-0.42477,-0.099795,0.669442
1697,-0.355389,0.302086,0.504822
1698,0.077532,0.343327,0.474771
1699,0.306185,0.249977,0.479135
1700,0.362668,0.244534,0.405205
1701,0.109931,0.007184,0.398443
1702,-0.147032,-0.05005,0.421144
1703,-0.149619,-0.207546,0.347805
1704,-0.120291,-0.215418,0.292773
1705,-0.063725,-0.154546,0.366206
1706,-0.113461,-0.235617,0.259538
1707,-0.173651,-0.286795,0.248598
1708,-0.101536,-0.372165,0.353712
1709,-0.042524,-0.321601,0.324821
1710,0.056253,-0.201922,0.23445
1711,0.174198,-0.115131,0.103083
1712,0.190282,-0.072508,0.074378
1713,0.12257,0.155151,-0.032997
1714,0.127541,0.168106,0.001469
1715,0.130867,0.136037,-0.010881
1716,0.454272,0.27931,0.015033
1717,0.391097,0.200492,0.015369
1718,0.319246,0.574526,0.076673
1719,0.247349,0.142309,0.279161
1720,0.023004,-0.135458,0.437647
1721,0.024259,-0.118437,0.529685
1722,-0.284638,0.584211,0.590559
1723,-0.524454,1.107853,0.560645
1724,-0.618723,1.167637,0.591144
1725,-0.390007,0.538993,0.256711
1726,-0.177339,0.338918,0.138246
1727,0.115014,0.166785,0.138916
1728,0.249543,-0.050123,0.156077
1729,0.257982,-0.264581,0.266791
1730,0.185728,-0.391872,0.387648
1731,0.000982,-0.575933,0.425692
1732,-0.134996,-0.76112,0.450097
1733,-0.231918,-0.832063,0.439883
1734,-0.248306,-0.855346,0.412704
1735,-0.289687,-0.710993,0.157972
1736,-0.039116,-0.05811,-0.000111
1737,0.039045,0.157342,-0.111445
1738,0.079781,0.721953,-0.282339
1739,0.25828,0.957418,-0.03919
1740,0.269303,0.962495,-0.027482
1741,-0.040716,0.290782,-0.422542
1742,-0.206025,0.21678,0.097169
1743,-0.121117,0.658904,0.153704
1744,0.035136,0.755181,0.282808
1745,-0.591408,-0.011172,0.896116
1746,-0.540428,0.455875,0.769903
1747,-0.37834,0.733278,0.53254
1748,0.109117,0.026632,0.540839
1749,0.270397,-0.055842,0.537399
1750,0.256272,-0.036913,0.505038
1751,-0.009807,0.060498,0.453669
1752,-0.129891,0.165175,0.403755
1753,-0.053007,-0.041021,0.272248
1754,-0.026838,-0.200391,0.301028
1755,-0.106405,-0.322465,0.335029
1756,-0.225429,-0.426491,0.233545
1757,-0.106011,-0.272574,0.312569
1758,-0.034581,-0.173034,0.320542
1759,0.044346,-0.195669,0.167338
1760,0.026113,-0.011785,0.122169
1761,0.083193,0.069656,0.038546
1762,0.181866,0.00563,-0.021882
1763,0.06749,0.028767,-0.149715
1764,0.097945,0.170227,-0.101772
1765,0.250437,0.409317,0.104319
1766,0.333651,0.360012,0.095512
1767,0.249965,0.339609,0.090703
1768,0.0944,0.25696,0.170269
1769,-0.176128,0.387063,0.18741
1770,-0.201553,-0.110308,0.350417
1771,-0.06871,-0.293426,0.374061
1772,0.254937,0.111643,0.663492
1773,-0.012741,0.824746,0.601207
1774,-0.399429,0.958273,0.461573
1775,-0.396853,0.852444,0.275164
1776,-0.421018,0.277234,0.024085
1777,-0.068404,0.099842,0.183594
1778,0.038393,-0.099298,0.321473
1779,-0.0668,-0.340639,0.394118
1780,-0.068088,-0.335631,0.352448
1781,0.102711,-0.385038,0.340547
1782,0.122186,-0.465748,0.339295
1783,0.009436,-0.631466,0.376223
1784,-0.127631,-0.692156,0.359391
1785,-0.181506,-0.653182,0.306233
1786,-0.187587,-0.33675,0.18324
1787,-0.12182,0.064839,0.037871
1788,-0.124419,0.06514,0.03796
1789,-0.030061,0.584778,-0.089206
1790,0.199833,0.603117,-0.247184
1791,0.167641,0.499153,-0.295335
1792,0.025916,0.2191,-0.354157
1793,-0.014113,-0.004151,-0.362343
1794,-0.006454,-0.02685,0.346074
1795,0.027097,0.281314,0.374154
1796,-0.465932,0.09758,0.839699
1797,-0.763135,1.254644,0.929252
1798,-0.179163,0.564848,0.367365
1799,0.195542,-0.300482,0.41569
1800,0.360129,-0.303805,0.41769
1801,0.240722,0.105008,0.463326
1802,0.115193,0.297996,0.397594
1803,-0.109496,0.337714,0.42096
1804,-0.137601,-0.22594,0.3472
1805,-0.197104,-0.360347,0.375973
1806,-0.309617,-0.472537,0.323647
1807,-0.308724,-0.310735,0.261121
1808,-0.161925,-0.07642,0.316351
1809,0.136096,-0.193569,0.225977
1810,0.217547,-0.219498,0.162099
1811,0.137606,-0.059259,0.095178
1812,0.15737,-0.043878,-0.084179
1813,0.133291,0.083523,-0.045532
1814,0.08527,0.10216,-0.034038
1815,0.108097,0.060095,0.011622
1816,0.450303,0.390097,0.024858
1817,0.388186,0.372495,0.087661
1818,0.27575,0.504213,0.13578
1819,0.194857,0.062957,0.389054
1820,-0.00789,-0.102918,0.454169
1821,-0.183477,0.089078,0.377133
1822,-0.401393,0.635231,0.536089
1823,-0.504961,0.837415,0.606538
1824,-0.431793,0.866341,0.579829
1825,-0.366678,0.688536,0.46699
1826,-0.115941,0.089533,0.126827
1827,-0.111166,0.097541,0.151431
1828,0.049335,-0.051533,0.160229
1829,0.084605,-0.104497,0.216468
1830,0.1016,-0.117936,0.272629
1831,0.079342,-0.408322,0.315445
1832,0.010184,-0.672842,0.37167
1833,-0.068697,-0.804385,0.430021
1834,-0.123439,-0.843532,0.382397
1835,-0.119193,-0.670088,0.283139
1836,-0.036277,-0.450314,0.105277
1837,0.012499,-0.176587,-0.014168
1838,-0.023781,0.14109,-0.025463
1839,0.03663,0.680272,0.044235
1840,0.056126,1.142551,-0.145544
1841,-0.116965,0.77965,-0.532366
1842,-0.1511,-0.057568,-0.418991
1843,-0.118885,-0.19856,0.494383
1844,0.008543,0.605126,0.524337
1845,-0.262649,0.248022,0.726635
1846,-0.453025,0.564958,0.845492
1847,-0.355066,0.884928,0.569142
1848,0.25796,0.270582,0.378728
1849,0.47139,-0.015824,0.448334
1850,0.459817,0.218264,0.530968
1851,0.033985,0.343874,0.416543
1852,-0.214369,0.365802,0.354911
1853,-0.149446,-0.007475,0.30672
1854,-0.131204,-0.343298,0.440488
1855,-0.156574,-0.535804,0.509714
1856,-0.269912,-0.335714,0.434429
1857,-0.516152,-0.027634,0.419415
1858,-0.474931,-0.115394,0.377661
1859,-0.064595,-0.327666,0.352394
1860,0.085953,-0.246119,0.230872
1861,0.315847,-0.176284,-0.041941
1862,0.368297,-0.083632,-0.147754
1863,0.202257,0.098674,-0.062988
1864,0.220364,0.138996,0.007819
1865,0.376475,0.276741,0.001288
1866,0.396043,0.29664,-0.024158
1867,0.246997,0.319879,0.067865
1868,0.135543,0.418481,0.17347
1869,0.089789,0.109323,0.36174
1870,0.073314,-0.037162,0.496061
1871,-0.150811,0.326263,0.522102
1872,-0.161472,0.333748,0.552786
1873,-0.554459,0.988904,0.518651
1874,-0.441614,0.682045,0.311501
1875,-0.315303,0.459394,0.201042
1876,-0.195621,0.359195,0.134897
1877,0.163829,0.035691,0.170922
1878,0.178546,0.045096,0.200912
1879,0.148234,-0.120559,0.270908
1880,0.078252,-0.206295,0.353408
1881,-0.036712,-0.375256,0.435989
1882,-0.111453,-0.659367,0.459528
1883,-0.151409,-0.7237,0.429827
1884,-0.15034,-0.748098,0.407502
1885,-0.200108,-0.665036,0.247073
1886,-0.132195,-0.443424,0.185839
1887,0.040657,-0.159419,0.098869
1888,0.043807,0.169802,-0.173122
1889,0.086043,0.804305,-0.162318
1890,0.129186,0.949088,-0.073665
1891,0.005837,0.641741,-0.361816
1892,-0.098935,0.108834,-0.23926
1893,-0.153581,0.427836,0.178066
1894,-0.034373,0.571418,0.431527
1895,-0.511174,-0.150503,0.660159
1896,-0.541904,0.384383,0.767177
1897,-0.117868,0.40324,0.504193
1898,0.215957,0.115457,0.499995
1899,0.390692,0.148636,0.556865
1900,0.368075,0.216462,0.456682
1901,0.039591,0.093011,0.42326
1902,-0.132186,0.195939,0.400491
1903,-0.131327,-0.01395,0.301042
1904,-0.071102,-0.157728,0.353501
1905,-0.097425,-0.245925,0.37592
1906,-0.216361,-0.362934,0.291313
1907,-0.245546,-0.477743,0.265774
1908,-0.118484,-0.379996,0.338592
1909,0.051316,-0.401338,0.281702
1910,0.107899,-0.153441,0.201755
1911,0.169222,0.062162,0.190143
1912,0.188201,0.044688,0.05716
1913,0.146862,0.174772,0.042369
1914,0.104577,0.229327,0.060552
1915,0.310822,0.273466,0.145256
1916,0.347269,0.326826,0.074703
1917,0.285303,0.369604,0.058225
1918,0.155928,0.518712,0.06672
1919,0.082725,0.187945,0.240941
1920,0.032555,-0.171952,0.452442
1921,0.023991,0.00852,0.534974
1922,-0.448129,0.908107,0.57129
1923,-0.543595,0.959005,0.442966
1924,-0.363901,0.777972,0.408657
1925,-0.075223,0.434513,0.170034
1926,0.035445,0.333383,0.113055
1927,0.219982,0.040472,0.198263
1928,0.104256,-0.134197,0.338682
1929,-0.02706,-0.20953,0.377292
1930,-0.095287,-0.29254,0.380874
1931,-0.084625,-0.418207,0.417778
1932,-0.067371,-0.540698,0.471304
1933,-0.065632,-0.577905,0.481075
1934,-0.208402,-0.61588,0.361498
1935,-0.269518,-0.574027,0.290845
1936,-0.201301,-0.330429,0.171936
1937,-0.025903,-0.133715,0.171697
1938,0.074348,0.083567,-0.005801
1939,0.323953,0.467686,-0.202616
1940,0.435834,0.610507,-0.28462
1941,0.265433,0.468565,-0.34377
1942,-0.026622,0.185645,-0.332778
1943,-0.159644,0.16264,0.189884
1944,-0.112443,0.832196,0.328107
1945,-0.365131,0.265268,0.502181
1946,-0.510816,-0.225194,0.698806
1947,-0.399387,0.045743,0.706445
1948,0.014415,0.724334,0.442999
1949,0.301019,0.199087,0.496724
1950,0.363358,0.177829,0.494601
1951,0.419388,0.1101,0.465611
1952,0.03689,0.127491,0.488944
1953,-0.042609,0.259404,0.421476
1954,-0.10592,0.067306,0.234258
1955,-0.061019,-0.149248,0.330926
1956,-0.080577,-0.231006,0.349554
1957,-0.201534,-0.462417,0.380929
1958,-0.157664,-0.42373,0.33562
1959,-0.097572,-0.328599,0.311498
1960,0.181016,-0.346173,0.218816
1961,0.255405,-0.286555,0.158633
1962,0.205665,-0.091794,0.216377
1963,0.150968,0.029432,0.120037
1964,0.157399,0.073558,0.148147
1965,0.078918,0.137884,0.089945
1966,0.316513,0.33474,0.15098
1967,0.505825,0.293357,0.041656
1968,0.4768,0.217091,-0.01754
1969,0.353723,0.161851,0.078479
1970,0.111701,0.187058,0.169505
1971,-0.017042,-0.205306,0.424255
1972,0.089728,-0.44544,0.533987
1973,0.279025,0.207045,0.685227
1974,-0.228838,1.029525,0.637967
1975,-0.426975,1.410689,0.464083
1976,-0.436403,1.295991,0.363411
1977,-0.320663,0.353274,0.223193
1978,-0.023655,0.066567,0.187127
1979,0.169165,-0.030104,0.236475
1980,0.168809,-0.075499,0.269792
1981,0.187124,-0.111442,0.276252
1982,0.142563,-0.200523,0.339981
1983,0.099491,-0.295907,0.403875
1984,0.010148,-0.753697,0.560127
1985,-0.065299,-0.831093,0.527589
1986,-0.091766,-0.83154,0.483918
1987,-0.123077,-0.557042,0.247728
1988,-0.088453,-0.143701,0.026398
1989,-0.122622,-0.055149,-0.00232
1990,-0.218117,0.323898,-0.082836
1991,-0.01715,0.876889,0.204403
1992,0.281595,0.912954,-0.182136
1993,0.233435,0.32303,-0.545218
1994,0.05667,0.079938,0.095518
1995,0.221919,0.704594,0.188006
1996,-0.278193,0.328421,0.612768
1997,-0.523466,0.733656,0.795516
1998,-0.142841,0.524379,0.421632
1999,0.289055,-0.28075,0.548929
2000,0.45397,0.065679,0.543767
2001,0.352237,0.277223,0.50944
2002,-0.021911,0.370805,0.403949
2003,-0.150541,0.277629,0.351456
2004,-0.093287,0.082931,0.309467
2005,0.042043,-0.268211,0.3926
2006,0.010324,-0.357336,0.465692
2007,-0.050942,-0.408878,0.434614
2008,-0.125724,-0.204182,0.302383
2009,-0.059975,-0.221587,0.345073
2010,0.112598,-0.432023,0.332319
2011,0.154417,-0.384435,0.225706
2012,0.151589,-0.006741,0.190487
2013,0.19637,0.026702,0.058895
2014,0.15959,0.094082,0.107468
2015,0.033457,0.155297,0.021681
2016,0.159874,0.28005,0.074615
2017,0.468504,0.397392,0.097556
2018,0.411594,0.348599,0.098539
2019,0.182587,0.655019,0.147159
2020,0.174006,0.233017,0.294811
2021,0.082983,-0.054421,0.44171
2022,0.039969,-0.29584,0.458638
2023,0.070508,-0.151243,0.450795
2024,-0.237179,0.737965,0.526008
2025,-0.370773,0.819488,0.521752
2026,-0.369389,0.690119,0.376442
2027,-0.158916,0.295795,0.185867
2028,-0.06363,0.191444,0.141893
2029,0.118179,-0.026544,0.243308
2030,0.170427,-0.168332,0.232517
2031,0.15244,-0.18774,0.264975
2032,0.098579,-0.255475,0.327567
2033,0.013521,-0.664357,0.394079
2034,-0.007462,-0.714819,0.403573
2035,-0.063185,-0.721517,0.407117
2036,-0.175169,-0.604533,0.299395
2037,-0.17768,-0.512446,0.242511
2038,-0.083254,-0.28982,0.151417
2039,0.096986,0.097637,-0.16886
2040,0.113218,0.247166,-0.214438
2041,0.296632,0.64404,0.042797
2042,0.199144,0.894038,-0.097094
2043,-0.039628,0.590342,-0.362783
2044,-0.127691,0.605214,0.006711
2045,0.090221,0.738541,0.020296
2046,-0.272344,0.160704,0.554343
2047,-0.440112,0.40418,0.778344
2048,-0.081687,0.489072,0.537963
2049,-0.020756,0.208777,0.539188
2050,0.284908,0.049192,0.516639
2051,0.381294,0.139973,0.473105
2052,0.161724,0.200526,0.519693
2053,-0.027973,0.222781,0.476902
2054,-0.050184,0.136158,0.427637
2055,-0.016136,-0.075182,0.331922
2056,-0.046738,-0.21706,0.388644
2057,-0.168499,-0.31926,0.356668
2058,-0.250301,-0.376952,0.284123
2059,-0.149629,-0.358912,0.301695
2060,0.026895,-0.417893,0.314716
2061,0.232825,-0.402069,0.266878
2062,0.106347,-0.046022,0.23999
2063,0.144928,0.032713,0.109858
2064,0.180492,0.036634,0.051784
2065,0.250467,-0.00245,0.034906
2066,0.200351,0.095086,0.057462
2067,0.379358,0.436738,0.168147
2068,0.366778,0.495838,0.068361
2069,0.350041,0.420274,0.084064
2070,0.15436,0.491605,0.176015
2071,0.216646,0.153118,0.317288
2072,0.173318,0.043821,0.389872
2073,-0.050709,-0.213633,0.437601
2074,-0.052965,0.275431,0.599379
2075,-0.245064,0.764282,0.554039
2076,-0.280479,0.828054,0.508065
2077,-0.257799,0.734351,0.289961
2078,-0.124727,0.402296,0.229266
2079,-0.038711,0.192038,0.19818
2080,0.170125,-0.170907,0.288948
2081,0.175563,-0.250614,0.347388
2082,0.154427,-0.242415,0.442481
2083,0.123539,-0.360154,0.398904
2084,0.014887,-0.564296,0.420226
2085,-0.030078,-0.60584,0.432362
2086,-0.184603,-0.713281,0.429367
2087,-0.292301,-0.623093,0.36373
2088,-0.308453,-0.527436,0.31435
2089,-0.112947,-0.212722,0.16294
2090,0.073839,0.017028,0.089841
2091,0.134942,0.609854,-0.164475
2092,0.227324,1.015579,-0.037534
2093,0.15154,0.795052,-0.273052
2094,-0.089984,0.391679,-0.166651
2095,-0.17795,0.727726,0.017462
2096,-0.202569,0.642908,0.336443
2097,-0.325267,0.337237,0.416005
2098,-0.348983,0.030062,0.522757
2099,-0.042855,0.100379,0.482112
2100,0.210864,0.153176,0.590963
2101,0.262305,0.246206,0.599758
2102,0.039799,0.209388,0.505512
2103,-0.068737,0.117947,0.461069
2104,-0.117926,0.050735,0.41094
2105,-0.065212,-0.121198,0.37797
2106,-0.050325,-0.141965,0.387071
2107,-0.043823,-0.185269,0.39749
2108,-0.079113,-0.268741,0.369091
2109,-0.098734,-0.322917,0.331262
2110,-0.092844,-0.370522,0.302611
2111,0.016029,-0.335909,0.312472
2112,0.049833,-0.290216,0.24451
2113,0.052891,-0.188816,0.188752
2114,0.101975,-0.059739,0.079546
2115,0.114021,-0.053063,0.041785
2116,0.218036,0.06863,0.018981
2117,0.253399,0.180164,0.120566
2118,0.374042,0.409606,0.160252
2119,0.249988,0.505183,0.146007
2120,0.090007,0.718445,0.206868
2121,0.177226,0.3586,0.385326
2122,0.17799,0.085643,0.479976
2123,0.006698,-0.054553,0.591771
2124,-0.383528,0.153562,0.405832
2125,-0.545374,0.738336,0.443903
2126,-0.542424,0.745537,0.556602
2127,-0.458168,0.654908,0.506588
2128,0.030753,0.318846,0.155915
2129,0.053542,0.215257,0.144364
2130,0.040919,0.075539,0.193987
2131,0.029595,-0.168216,0.189291
2132,0.018219,-0.199824,0.28321
2133,0.006837,-0.301858,0.388524
2134,0.041857,-0.493607,0.440979
2135,0.041868,-0.684748,0.463905
2136,-0.071103,-0.721705,0.389362
2137,-0.147159,-0.706939,0.369738
2138,-0.232958,-0.402886,0.186064
2139,-0.16801,-0.277945,0.137448
2140,-0.082204,-0.14209,0.101253
2141,0.095973,0.324492,-0.192768
2142,0.22691,0.698957,-0.112096
2143,0.267739,0.685642,-0.024015
2144,-0.147901,0.526577,-0.069546
2145,-0.152568,0.529916,-0.064165
2146,-0.153817,0.957981,0.089088
2147,-0.571219,0.166417,0.535553
2148,-0.564332,0.208,0.61513
2149,-0.384389,0.231815,0.440506
2150,0.234149,0.187572,0.656678
2151,0.262023,0.308767,0.649487
2152,0.231101,0.375898,0.616349
2153,-0.176468,0.043308,0.557065
2154,-0.185937,0.070881,0.556448
2155,-0.19936,-0.02267,0.51161
2156,-0.109448,-0.164623,0.434927
2157,-0.136642,-0.15317,0.402149
2158,-0.149385,-0.093396,0.294346
2159,-0.19025,-0.197449,0.256585
2160,-0.091157,-0.411486,0.300017
2161,0.02412,-0.413966,0.256152
2162,0.054762,-0.204243,0.168406
2163,0.126983,-0.020259,0.160434
2164,0.084699,-0.01061,0.045284
2165,0.103036,0.034597,0.075342
2166,0.032363,0.132156,0.143304
2167,-0.020337,0.211227,0.124554
2168,0.210027,0.401552,0.144885
2169,0.354211,0.426903,0.133014
2170,0.220231,0.600917,0.171791
2171,0.272938,0.31507,0.282336
2172,0.215641,0.112989,0.277868
2173,-0.019019,-0.087448,0.37929
2174,-0.285201,-0.021591,0.452515
2175,-0.501586,0.625464,0.518846
2176,-0.589824,0.777177,0.570229
2177,-0.439408,0.690025,0.536688
2178,-0.293214,0.555436,0.401818
2179,0.002201,0.367467,0.231471
2180,-0.038869,0.037628,0.18067
2181,0.003635,-0.042203,0.238533
2182,-0.047837,-0.227266,0.310718
2183,-0.046054,-0.237889,0.361179
2184,-0.018803,-0.350977,0.383793
2185,0.012147,-0.55316,0.422411
2186,-0.030656,-0.71773,0.407883
2187,-0.140196,-0.727201,0.317039
2188,-0.233927,-0.512401,0.199085
2189,-0.256522,-0.286135,0.082165
2190,-0.139139,-0.112065,0.046028
2191,0.015084,0.207595,0.001918
2192,0.334298,0.706987,-0.027961
2193,0.280583,0.784231,-0.103928
2194,0.098675,0.784593,-0.244808
2195,-0.434367,0.70792,0.12911
2196,-0.442489,0.716164,0.141898
2197,-0.312192,0.535882,0.325916
2198,-0.342524,0.166031,0.4303
2199,-0.21545,-0.417231,0.514815
2200,-0.286614,-0.329601,0.59688
2201,-0.029572,0.34995,0.636092
2202,0.197087,0.715278,0.583838
2203,0.170827,0.497398,0.462928
2204,0.027531,0.002513,0.419431
2205,-0.036893,-0.097519,0.434544
2206,-0.118888,-0.033922,0.370811
2207,-0.142321,-0.009391,0.286528
2208,-0.116729,0.010961,0.32173
2209,-0.141276,-0.171264,0.388726
2210,-0.207772,-0.425819,0.345365
2211,-0.243742,-0.603335,0.369569
2212,-0.188943,-0.439227,0.364523
2213,-0.163338,-0.15284,0.248869
2214,-0.013975,0.039305,0.199912
2215,0.120421,0.055024,0.0899
2216,0.070801,0.015435,0.202182
2217,-0.052009,0.30063,-0.017202
2218,0.172368,0.467506,0.00886
2219,0.335696,0.48417,0.004283
2220,0.408579,0.295658,-0.028447
2221,0.31881,0.583849,0.223979
2222,0.090325,0.312818,0.278187
2223,-0.067632,0.164557,0.356736
2224,-0.040941,-0.204975,0.510978
2225,-0.087738,0.225637,0.598676
2226,-0.223952,0.58893,0.628447
2227,-0.469453,0.928862,0.509782
2228,-0.429952,0.689086,0.401287
2229,-0.339552,0.495415,0.323344
2230,-0.080213,0.060941,0.192576
2231,0.053239,-0.056035,0.28819
2232,0.058849,-0.163992,0.300774
2233,0.009709,-0.207447,0.353069
2234,0.013954,-0.320504,0.378952
2235,-0.046112,-0.524481,0.430779
2236,-0.105452,-0.658167,0.452785
2237,-0.201234,-0.743326,0.412151
2238,-0.189445,-0.749067,0.405134
2239,-0.226493,-0.511311,0.267632
2240,-0.091818,-0.239916,0.190426
2241,-0.02611,-0.081304,0.130063
2242,-0.01507,0.751143,-0.130398
2243,0.059436,1.134679,-0.14605
2244,0.074567,1.137277,-0.138997
2245,-0.126153,0.379993,-0.208309
2246,0.151951,0.803435,0.022167
2247,0.060394,0.728665,0.259187
2248,-0.179935,0.445337,0.392357
2249,-0.386328,0.010339,0.524256
2250,-0.21027,0.003538,0.559889
2251,0.159804,0.007568,0.666451
2252,0.265272,0.16974,0.66953
2253,0.19376,0.398329,0.512654
2254,-0.049833,0.210887,0.376439
2255,-0.098106,0.140131,0.440279
2256,-0.152708,-0.096904,0.445775
2257,-0.169624,-0.218402,0.391633
2258,-0.189898,-0.239406,0.360327
2259,-0.15147,-0.223989,0.341599
2260,-0.121255,-0.351973,0.31709
2261,-0.092549,-0.286096,0.33749
2262,-0.12691,-0.307257,0.300239
2263,-0.031128,-0.233451,0.232923
2264,0.01609,0.012554,0.17942
2265,0.031965,0.030762,0.136851
2266,-0.008326,0.117792,0.238096
2267,-0.053396,0.148765,0.175416
2268,-0.029059,0.338447,0.037346
2269,0.379098,0.498696,0.09058
2270,0.4391,0.251379,0.174138
2271,0.416309,0.55344,0.244608
2272,0.111779,0.316928,0.305421
2273,-0.142816,0.15719,0.314887
2274,-0.177969,-0.093808,0.410263
2275,-0.059208,0.189159,0.404493
2276,-0.192051,0.658222,0.600157
2277,-0.26372,0.703622,0.59712
2278,-0.320191,0.72968,0.499282
2279,-0.211067,0.328415,0.209558
2280,-0.160989,0.135772,0.142695
2281,0.012313,-0.158475,0.290821
2282,0.022335,-0.237532,0.336831
2283,0.027429,-0.255147,0.388951
2284,0.045046,-0.333305,0.467601
2285,-0.048625,-0.505894,0.507472
2286,-0.105455,-0.558402,0.477228
2287,-0.161304,-0.574932,0.436284
2288,-0.283481,-0.479071,0.29875
2289,-0.240682,-0.421287,0.261786
2290,-0.166167,-0.337014,0.215753
2291,0.105834,0.025803,0.117369
2292,0.118039,0.197079,-0.055328
2293,0.092063,0.94977,-0.069175
2294,-0.061599,0.80648,-0.243151
2295,-0.145223,0.60061,-0.161015
2296,-0.211933,0.542568,0.02533
2297,-0.350677,0.215318,0.377733
2298,-0.400883,-0.003899,0.392578
2299,-0.412124,-0.077681,0.562644
2300,0.007856,0.283908,0.615646
2301,0.259114,0.41237,0.649375
2302,0.316503,0.448179,0.617687
2303,0.149502,0.070404,0.52167
2304,0.008279,-0.073155,0.545983
2305,-0.204555,-0.067181,0.617659
2306,-0.274233,-0.141479,0.489851
2307,-0.259301,-0.164304,0.379726
2308,-0.149246,-0.103206,0.37386
2309,-0.130082,-0.178447,0.276725
2310,-0.14979,-0.286006,0.257867
2311,0.004601,-0.415761,0.289753
2312,0.095004,-0.269773,0.271932
2313,0.105535,-0.259702,0.182981
2314,0.181257,-0.062046,0.201246
2315,0.117616,0.008134,0.173955
2316,0.071452,0.027302,0.153197
2317,-0.156811,0.25186,0.155177
2318,-0.055312,0.311957,0.004042
2319,0.086309,0.398406,0.040434
2320,0.39017,0.394469,0.115998
2321,0.416684,0.681799,0.194697
2322,0.265131,0.450371,0.254873
2323,0.067928,0.136117,0.310515
2324,-0.064901,-0.038182,0.520213
2325,-0.0788,-0.021523,0.557708
2326,-0.349251,0.510709,0.601133
2327,-0.428,0.593958,0.619134
2328,-0.483864,0.569867,0.665697
2329,-0.229884,0.485187,0.354341
2330,-0.065357,0.117687,0.222907
2331,0.013487,-0.012895,0.301233
2332,0.058691,-0.10004,0.329952
2333,0.016527,-0.27972,0.38994
2334,0.025187,-0.26687,0.416201
2335,-0.002159,-0.395084,0.444223
2336,-0.115727,-0.701772,0.381113
2337,-0.139913,-0.716272,0.376131
2338,-0.187296,-0.67946,0.307711
2339,-0.183087,-0.465398,0.217542
2340,-0.09067,-0.202207,0.164737
2341,0.089105,0.086816,0.09469
2342,0.020485,0.577821,-0.220032
2343,0.07869,0.803482,-0.091548
2344,0.055904,0.686463,-0.11148
2345,-0.122255,0.257824,-0.10191
2346,-0.110763,0.713457,0.21751
2347,0.04529,0.87456,0.258937
2348,-0.530391,-0.11844,0.512941
2349,-0.605448,-0.137159,0.712991
2350,-0.13061,0.398147,0.577039
2351,0.36853,0.246752,0.614337
2352,0.460978,0.215241,0.628313
2353,0.264082,0.217586,0.472419
2354,-0.052786,0.038365,0.474203
2355,-0.108531,0.078609,0.479449
2356,-0.231489,0.125782,0.411509
2357,-0.15872,-0.01966,0.380253
2358,-0.121831,-0.092327,0.415076
2359,-0.098807,-0.244775,0.432129
2360,-0.213422,-0.372616,0.371728
2361,-0.227839,-0.434885,0.353353
2362,-0.167492,-0.245569,0.432794
2363,-0.080237,-0.203701,0.273292
2364,-0.05136,-0.123713,0.21306
2365,0.081903,0.007133,0.144118
2366,0.1079,0.04872,0.120638
2367,0.072324,0.138476,0.056621
2368,0.216695,0.199185,0.147822
2369,0.426514,0.416297,0.196135
2370,0.413556,0.403354,0.166595
2371,0.223383,0.683941,0.305774
2372,0.134655,0.309708,0.244544
2373,0.133327,0.119348,0.270979
2374,-0.024659,-0.217426,0.290219
2375,-0.23421,-0.082405,0.298932
2376,-0.171662,0.185647,0.498557
2377,-0.196776,0.660757,0.690056
2378,-0.23884,0.893018,0.512365
2379,-0.270352,0.937151,0.419151
2380,-0.358773,0.352534,0.174699
2381,-0.164671,0.127751,0.236981
2382,-0.017087,-0.013759,0.338596
2383,0.01749,-0.087673,0.424924
2384,0.061018,-0.169958,0.429569
2385,0.010296,-0.361506,0.442538
2386,-0.016728,-0.540907,0.469534
2387,-0.082115,-0.632955,0.502934
2388,-0.17014,-0.662261,0.486506
2389,-0.252181,-0.585188,0.420583
2390,-0.196193,-0.27197,0.229872
2391,-0.053818,-0.040566,0.154775
2392,-0.020609,0.29438,0.000358
2393,0.106136,0.660729,-0.004503
2394,0.126002,0.732096,-0.046537
2395,0.04819,0.625198,-0.244472
2396,-0.108682,0.364655,-0.196679
2397,-0.17722,0.666968,0.107874
2398,0.018564,0.85187,0.20451
2399,-0.345694,0.007458,0.479056
2400,-0.357395,-0.120415,0.558548
2401,-0.359513,0.076809,0.604342
2402,-0.143482,0.279413,0.626889
2403,-0.031377,0.317547,0.623582
2404,0.223625,0.384652,0.553303
2405,-0.045015,0.030157,0.501994
2406,-0.083034,0.042939,0.518917
2407,-0.170061,-0.043475,0.443391
2408,-0.145355,-0.12124,0.404928
2409,-0.15434,-0.158124,0.417889
2410,-0.166255,-0.239426,0.383661
2411,-0.160447,-0.215689,0.337554
2412,-0.140437,-0.223794,0.335966
2413,-0.074982,-0.247511,0.318633
2414,-0.052025,-0.142945,0.202427
2415,-0.027821,-0.081403,0.157963
2416,0.084518,-0.011916,0.106839
2417,0.116507,-0.045233,0.05765
2418,0.09905,-0.010291,0.083358
2419,-0.085357,0.154246,0.183426
2420,-0.075709,0.236523,0.182989
2421,0.145589,0.39807,0.150098
2422,0.230112,0.315823,0.182659
2423,0.101059,0.585726,0.213176
2424,0.108668,0.408635,0.308503
2425,-0.017955,0.119356,0.421794
2426,-0.139397,-0.058916,0.531595
2427,-0.226444,-0.018858,0.508918
2428,-0.446836,0.553921,0.472351
2429,-0.495129,0.700543,0.51607
2430,-0.460251,0.721817,0.562241
2431,-0.129184,0.374823,0.228243
2432,-0.105459,0.0787,0.219379
2433,-0.105029,0.029818,0.269505
2434,-0.091602,-0.051314,0.279801
2435,-0.098121,-0.027843,0.333609
2436,-0.070128,-0.166147,0.359358
2437,-0.062227,-0.365946,0.419421
2438,-0.092036,-0.575032,0.421543
2439,-0.151172,-0.549174,0.398721
2440,-0.262607,-0.556371,0.344131
2441,-0.330762,-0.403635,0.305439
2442,-0.275792,-0.281181,0.219477
2443,-0.100564,-0.128053,0.130356
2444,0.110575,0.055181,-0.007192
2445,0.137447,0.338372,-0.107575
2446,0.094856,0.560562,-0.019294
2447,-0.146192,0.728185,-0.147051
2448,-0.254667,0.683082,-0.056865
2449,-0.165715,0.93435,0.019251
2450,-0.409649,0.313296,0.314071
2451,-0.44519,0.107564,0.341866
2452,-0.386746,-0.098521,0.476609
2453,0.026024,-0.013032,0.598308
2454,0.176797,0.03919,0.652625
2455,0.355533,0.487084,0.61423
2456,-0.006765,0.283992,0.407249
2457,-0.15432,0.030196,0.438962
2458,-0.170101,-0.021788,0.5341
2459,-0.197733,-0.083391,0.509347
2460,-0.189679,-0.097503,0.468842
2461,-0.138184,-0.065248,0.430953
2462,-0.15572,-0.046665,0.386465
2463,-0.193636,-0.121368,0.38711
2464,-0.180734,-0.348382,0.34859
2465,-0.074555,-0.249162,0.340458
2466,-0.069592,-0.170012,0.274225
2467,-0.00483,-0.109471,0.183505
2468,0.098768,0.033985,0.199074
2469,0.115166,0.026099,0.181757
2470,-0.120174,0.186529,0.13784
2471,-0.204919,0.262979,0.045519
2472,-0.058351,0.267647,0.084812
2473,0.323807,0.226151,0.078473
2474,0.32607,0.27459,0.136573
2475,0.31004,0.406329,0.199287
2476,0.086133,0.06233,0.389489
2477,-0.005414,-0.154454,0.541967
2478,0.012345,-0.200203,0.596031
2479,-0.197994,0.548795,0.580034
2480,-0.564925,0.929597,0.554162
2481,-0.576236,0.942754,0.587324
2482,-0.492804,0.576831,0.381705
2483,-0.118636,0.158855,0.234855
2484,-0.116075,0.169499,0.261065
2485,0.075383,0.003568,0.273943
2486,0.05464,-0.010559,0.30325
2487,0.056566,-0.055362,0.326157
2488,-0.026488,-0.189678,0.404608
2489,-0.188163,-0.52745,0.513443
2490,-0.211957,-0.56776,0.502604
2491,-0.243229,-0.635286,0.465322
2492,-0.23959,-0.48635,0.384504
2493,-0.210567,-0.408036,0.327186
2494,-0.131969,-0.136732,0.146519
2495,-0.103731,0.025331,0.10208
2496,-0.101325,0.181606,0.075119
2497,0.094918,0.772823,0.082081
2498,0.058732,0.706964,-0.021327
2499,-0.039379,0.519283,-0.192474
2500,-0.116883,0.184299,0.03204
2501,0.044778,0.713204,0.174835
2502,0.046224,0.706317,0.316479
2503,-0.524761,-0.011759,0.535465
2504,-0.529058,0.025692,0.701403
2505,-0.297552,0.286907,0.693185
2506,0.057516,0.350664,0.694531
2507,0.191519,0.29046,0.642624
2508,0.132832,0.262373,0.414016
2509,-0.041809,0.084721,0.479208
2510,-0.144352,0.22885,0.574728
2511,-0.191098,0.166337,0.531514
2512,-0.190243,-0.075248,0.418083
2513,-0.161212,-0.106081,0.404133
2514,-0.12883,-0.133891,0.375605
2515,-0.188524,-0.246248,0.301973
2516,-0.1559,-0.291826,0.341969
2517,-0.093678,-0.279104,0.340681
2518,0.065454,-0.244397,0.261377
2519,0.024008,-0.106022,0.250923
2520,0.015859,-0.026907,0.220507
2521,0.038008,-0.019001,0.035938
2522,0.06014,0.198494,0.03081
2523,0.07278,0.193368,0.020387
2524,0.112518,0.298865,0.130087
2525,0.131905,0.410852,0.131738
2526,0.10842,0.353675,0.100414
2527,0.018651,0.425871,0.247401
2528,-0.069097,0.35523,0.315633
2529,-0.09953,0.249229,0.350972
2530,-0.036498,0.012919,0.529481
2531,-0.078628,-0.019117,0.506118
2532,-0.231432,0.430029,0.649379
2533,-0.38599,0.660735,0.610881
2534,-0.469689,0.761427,0.504684
2535,-0.28549,0.421351,0.231764
2536,-0.082804,0.227924,0.226893
2537,0.00522,0.069825,0.313371
2538,0.02759,-0.083472,0.358492
2539,-0.023736,-0.172886,0.429683
2540,0.028964,-0.276452,0.457301
2541,0.017567,-0.346558,0.439935
2542,-0.074233,-0.455297,0.447614
2543,-0.267229,-0.515588,0.404086
2544,-0.27665,-0.431467,0.383134
2545,-0.197143,-0.289725,0.260311
2546,-0.102379,-0.120699,0.111862
2547,-0.024832,0.03387,0.114705
2548,0.022642,0.317269,0.084236
2549,0.122694,0.556249,0.088251
2550,0.086503,0.617953,0.062378
2551,-0.085065,0.317529,-0.198954
2552,-0.137374,0.392302,0.253337
2553,-0.150948,0.736269,0.24301
2554,-0.267576,0.664136,0.345687
2555,-0.342649,0.075191,0.413804
2556,-0.25649,-0.053861,0.573282
2557,-0.041511,-0.049592,0.518704
2558,0.110448,0.193407,0.588987
2559,0.159522,0.407855,0.547318
2560,-0.027251,0.299871,0.388971
2561,-0.025035,0.230327,0.411706
2562,-0.009288,0.194487,0.439655
2563,-0.068278,-0.05683,0.488194
2564,-0.081035,-0.171308,0.430426
2565,-0.109388,-0.191548,0.430668
2566,-0.156165,-0.140071,0.404701
2567,-0.135549,-0.139516,0.359982
2568,-0.090666,-0.186071,0.336573
2569,0.061826,-0.295294,0.369425
2570,0.039106,-0.21426,0.353492
2571,0.046985,-0.171849,0.315694
2572,0.023924,0.055837,0.258023
2573,0.036155,0.03858,0.129467
2574,0.02602,0.072877,0.121233
2575,-0.045994,0.094045,0.150798
2576,0.191379,0.260027,0.249188
2577,0.308295,0.284095,0.163553
2578,0.345731,0.285333,0.209436
2579,0.187507,0.228033,0.348358
2580,0.100487,0.087438,0.475015
2581,-0.021063,-0.022002,0.732189
2582,-0.257725,0.453085,0.564527
2583,-0.270341,0.464596,0.595938
2584,-0.48583,0.709659,0.557709
2585,-0.473663,0.420063,0.442202
2586,-0.422517,0.25278,0.42154
2587,-0.23612,0.187712,0.35792
2588,-0.042732,0.206636,0.284064
2589,0.017459,0.185055,0.283618
2590,0.140504,0.068053,0.371266
2591,0.090263,-0.132427,0.454234
2592,0.034561,-0.205838,0.488218
2593,-0.174305,-0.395593,0.463462
2594,-0.2279,-0.367514,0.445088
2595,-0.292128,-0.350545,0.419744
2596,-0.216011,-0.342123,0.394687
2597,-0.087137,-0.323501,0.275118
2598,-0.03406,-0.293923,0.232332
2599,0.027232,-0.051532,0.130401
2600,-0.00833,0.260473,0.098192
2601,0.008472,0.448335,0.052101
2602,0.101183,0.581734,0.030077
2603,0.053903,0.36185,-0.164688
2604,-0.003788,0.266702,-0.136955
2605,-0.07467,0.742578,0.188983
2606,-0.294281,0.437226,0.372378
2607,-0.376436,0.166845,0.408937
2608,-0.111287,0.447688,0.676931
2609,0.112349,0.666268,0.57605
2610,0.126997,0.435356,0.58654
2611,-0.036416,0.085766,0.533818
2612,-0.076274,0.111602,0.49593
2613,-0.086899,0.106975,0.486654
2614,-0.095979,0.091185,0.470618
2615,-0.084298,0.050477,0.494245
2616,-0.077777,0.001366,0.489074
2617,-0.110733,-0.134281,0.471516
2618,-0.154017,-0.226121,0.441713
2619,-0.157599,-0.243239,0.4269
