,userAcceleration.x,userAcceleration.y,userAcceleration.z
0,0.115202,-0.117842,-0.196799
1,0.110419,-0.115493,-0.077471
2,0.177432,-0.118329,-0.013201
3,0.170936,-0.13794,-0.070216
4,0.174261,-0.15418,-0.162353
5,0.113198,0.027209,-0.138594
6,0.126813,0.120072,-0.124723
7,0.194476,0.152618,-0.160944
8,0.273332,0.163079,-0.109015
9,0.423273,0.292554,-0.170345
10,0.765848,0.434321,-0.409802
11,0.681007,0.411684,-0.382227
12,0.726355,0.451688,-0.353718
13,0.752389,0.532899,-0.514985
14,0.22811,0.28039,-0.496535
15,-0.377085,0.371835,-0.187843
16,-0.556713,0.82642,0.736954
17,-0.341663,1.000289,0.223001
18,-0.168868,0.982,-0.159226
19,-0.240277,0.424294,-0.27878
20,-0.265773,0.408949,0.144506
21,-0.403547,0.332586,0.30416
22,0.11086,-0.110975,0.440184
23,-0.19461,-0.213039,0.31758
24,-0.206078,-0.283191,0.356339
25,-0.306156,-0.444647,0.536892
26,-0.312099,-0.393369,0.53478
27,-0.409557,-0.378406,0.584216
28,-0.556986,-0.353322,0.746884
29,-0.523077,-0.528151,0.722871
30,-0.511174,-0.668444,0.649115
31,-0.481403,-0.761043,0.17854
32,-0.05438,-0.498495,-0.436701
33,0.598027,1.108397,-1.339058
34,1.259605,2.334414,-1.463091
35,9.60E-05,0.020419,-0.490399
36,-0.561857,-0.150351,-0.061462
37,-0.473399,0.415436,1.251143
38,-0.478253,0.56564,1.095161
39,0.107887,0.649081,-0.29786
40,-0.414397,-0.726371,0.75788
41,-0.618072,-0.233105,0.211095
42,-0.33316,0.253797,1.117225
43,0.057492,0.532685,0.589742
44,0.098236,0.309024,0.468744
45,-0.032409,0.125757,0.384401
46,-0.236134,0.117223,0.308709
47,-0.381001,0.060393,0.288016
48,-0.23543,0.064174,0.258928
49,-0.03425,0.045888,0.289576
50,0.086428,-0.206447,0.144803
51,0.076856,-0.266767,0.093498
52,-0.027654,-0.135385,0.043307
53,0.035247,-0.148059,-0.011203
54,0.05221,-0.181848,-0.093756
55,0.062382,-0.121052,-0.081337
56,0.101415,-0.102312,-0.012959
57,0.119834,-0.112972,-0.058881
58,0.091384,-0.155207,-0.079288
59,0.111289,-0.151006,-0.100467
60,0.205951,0.139869,-0.113841
61,0.285733,0.108037,-0.109561
62,0.433086,0.137658,-0.098055
63,0.71113,0.420569,-0.268716
64,0.611941,0.500868,-0.462862
65,0.595731,0.427913,-0.44404
66,0.805147,0.510318,-0.383784
67,0.598006,0.259432,-0.332033
68,0.299216,0.145345,-0.39549
69,-0.045782,0.250192,-0.450424
70,-0.502187,0.490814,0.664123
71,-0.35329,0.913018,0.479003
72,-0.157548,0.962033,0.025144
73,-0.158843,0.643011,-0.354312
74,-0.318285,0.547933,0.124595
75,-0.461363,0.479261,0.319472
76,-0.212448,-0.074268,0.358976
77,-0.180361,-0.259032,0.378433
78,-0.346865,-0.288255,0.425318
79,-0.32219,-0.491052,0.509801
80,-0.450826,-0.622595,0.450316
81,-0.440713,-0.582952,0.518162
82,-0.43195,-0.516388,0.593436
83,-0.415683,-0.590939,0.674113
84,-0.446387,-0.749399,0.593496
85,-0.386574,-0.66923,0.270228
86,-0.064143,-0.281169,-0.197148
87,0.606392,0.906542,-1.203582
88,0.758137,1.437373,-1.064848
89,-0.095433,-0.128205,-0.327603
90,-0.363882,-0.335146,-0.122619
91,-0.616818,-0.550906,0.187789
92,-0.36575,0.175447,1.804173
93,-0.501006,1.324533,-0.796131
94,0.200548,1.240208,0.366811
95,-0.625414,-0.533125,0.723323
96,-0.571369,-0.368689,1.028959
97,-0.572819,-0.064558,1.077516
98,-0.340386,0.434816,0.4522
99,0.249633,0.772091,0.435851
100,0.26509,0.234901,0.422526
101,-0.131585,0.052054,0.330206
102,-0.313506,0.006606,0.302742
103,-0.344347,-0.1601,0.228884
104,-0.040026,-0.242131,0.214077
105,0.029519,-0.23591,0.202441
106,0.098443,-0.136575,0.068404
107,0.218488,-0.118339,-0.157192
108,0.200775,-0.149801,-0.2191
109,0.161307,-0.162323,-0.165783
110,0.237627,-0.08879,0.043403
111,0.264543,-0.080067,-0.004307
112,0.26568,-0.039973,-0.133843
113,0.18878,0.118417,-0.229987
114,0.282628,0.242114,-0.252102
115,0.474965,0.208747,-0.235128
116,0.831971,0.290851,-0.231975
117,0.82295,0.469041,-0.517015
118,0.43848,0.321649,-0.469538
119,0.397418,0.248122,-0.388808
120,0.74845,0.31211,-0.20551
121,0.237594,0.299493,-0.420226
122,-0.367172,0.541756,0.170086
123,-0.500253,0.592568,0.724878
124,-0.340783,1.115072,-0.037959
125,-0.260737,0.942789,-0.245219
126,-0.110504,0.509803,-0.166087
127,-0.214823,0.407197,0.189837
128,-0.239304,0.125028,0.609086
129,-0.082398,-0.014816,0.554794
130,-0.153826,-0.262876,0.359578
131,-0.170684,-0.321784,0.518655
132,-0.242498,-0.313905,0.606717
133,-0.438417,-0.450448,0.623852
134,-0.551586,-0.465263,0.739091
135,-0.563956,-0.487828,0.752258
136,-0.540902,-0.664944,0.729094
137,-0.48971,-0.832934,0.642592
138,-0.440217,-0.676125,0.24978
139,-0.029195,-0.256954,-0.104519
140,0.88292,1.793229,-1.650744
141,1.092576,2.060542,-1.498981
142,-0.152728,-0.421775,-0.223378
143,-0.418496,-0.603379,-0.151013
144,-0.287629,-0.54445,1.151801
145,-0.439764,0.1939,1.661851
146,0.587407,2.423651,-0.841481
147,-0.309376,0.546763,0.350291
148,-1.017509,-0.762019,0.045963
149,-0.548075,-0.248323,1.307458
150,-0.367155,-0.1385,1.128559
151,0.022461,0.276257,0.70225
152,0.271939,0.597257,0.127189
153,0.186943,0.224897,0.134185
154,-0.159045,0.026035,0.288454
155,-0.358867,-0.068447,0.376192
156,-0.270107,-0.12779,0.253145
157,-0.079114,-0.240812,0.163258
158,0.081695,-0.133282,0.146956
159,0.155431,-0.122743,-0.043019
160,0.135055,-0.292117,-0.173922
161,0.086782,-0.244842,-0.182564
162,0.06687,-0.193288,-0.142851
163,0.103336,-0.155282,-0.026156
164,0.175852,-0.077407,-0.127896
165,0.156134,-0.028766,-0.200719
166,0.137113,0.147043,-0.161734
167,0.138079,0.162649,-0.176405
168,0.303889,0.201712,-0.149867
169,1.042019,0.395446,-0.209448
170,0.76349,0.363275,-0.455949
171,0.567502,0.302858,-0.429591
172,0.662391,0.373493,-0.472321
173,0.673357,0.35792,-0.330926
174,0.27276,0.211194,-0.385944
175,-0.482437,0.623388,0.400781
176,-0.694119,0.943304,0.890506
177,-0.394776,1.125836,-0.217345
178,-0.143522,0.472693,-0.270723
179,-0.103959,0.32488,0.101345
180,-0.291736,0.332699,0.312094
181,-0.119563,0.129686,0.522847
182,0.060164,-0.136348,0.388725
183,-0.299994,-0.259271,0.332241
184,-0.209741,-0.306348,0.477366
185,-0.392788,-0.407678,0.572309
186,-0.544215,-0.450386,0.606806
187,-0.611987,-0.458916,0.715487
188,-0.561472,-0.504868,0.671209
189,-0.579103,-0.739815,0.623774
190,-0.544294,-0.842147,0.58232
191,-0.385622,-0.629227,0.048656
192,0.040123,0.064762,-0.344486
193,1.862569,2.428362,-1.884348
194,0.110748,-0.052838,-0.500215
195,-0.050734,-0.404941,-0.343772
196,-0.736715,-0.677143,0.023934
197,-0.634195,0.041068,1.474607
198,-0.480064,0.317178,1.218177
199,0.138007,1.574245,-1.13939
200,-0.657198,-0.741689,0.935423
201,-0.621275,-0.483092,0.6244
202,-0.617488,-0.200832,0.948587
203,-0.496698,0.01041,0.807658
204,-0.279035,0.24183,0.534294
205,0.176919,0.648879,0.257181
206,0.163853,0.332194,0.327339
207,0.087816,0.028631,0.409914
208,-0.259045,-0.045424,0.302621
209,-0.271898,-0.098708,0.242237
210,-0.18151,-0.242131,0.149417
211,-0.025814,-0.093684,0.115784
212,0.046174,-0.067161,-0.005379
213,0.074674,-0.109523,-0.103735
214,-0.007798,-0.195241,-0.154419
215,0.03963,-0.171727,-0.036246
216,0.159289,-0.122366,0.025348
217,0.218359,-0.11353,-0.037802
218,0.346535,-0.076132,-0.152781
219,0.317461,0.080052,-0.230379
220,0.277453,0.187277,-0.22577
221,0.325954,0.198005,-0.239494
222,0.569078,0.309959,-0.289553
223,0.764895,0.533924,-0.439831
224,0.73806,0.375753,-0.348879
225,0.603976,0.211057,-0.370311
226,0.703569,0.325868,-0.379927
227,0.521314,0.179153,-0.290249
228,-0.081247,0.298391,-0.318195
229,-0.386591,0.669862,0.597375
230,-0.539247,1.026109,0.717279
231,-0.237038,1.070301,-0.16801
232,-0.264624,0.67832,-0.357315
233,-0.102039,0.423953,0.005051
234,-0.296278,0.236985,0.371297
235,-0.09402,-0.032736,0.578797
236,-0.16689,-0.194046,0.369809
237,-0.192683,-0.273085,0.471136
238,-0.26549,-0.355475,0.514727
239,-0.479437,-0.386225,0.654739
240,-0.501723,-0.347753,0.726948
241,-0.517349,-0.326226,0.738315
242,-0.615756,-0.53852,0.676852
243,-0.659387,-0.695455,0.615243
244,-0.633964,-0.735893,0.287218
245,0.013041,-0.153593,-0.324647
246,0.181402,0.469758,-0.620227
247,0.801173,1.85775,-1.22673
248,-0.138101,0.019651,-0.407457
249,-0.350796,-0.231825,-0.097193
250,-0.106625,0.904935,0.778609
251,0.064512,0.71658,1.201413
252,-0.122592,-0.551359,0.369405
253,-0.735052,-0.332209,0.330363
254,-0.542252,-0.283057,0.923713
255,-0.224101,0.45453,0.785739
256,0.09889,0.518742,0.54682
257,0.152494,0.287633,0.3996
258,0.042073,0.153551,0.304013
259,-0.204702,0.096319,0.434659
260,-0.316798,-0.030409,0.340142
261,-0.225005,-0.031994,0.325791
262,-0.049622,-0.091044,0.279849
263,0.061903,-0.192223,0.176629
264,0.044568,-0.162215,0.083364
265,-0.05904,-0.119762,0.084113
266,-0.013636,-0.191126,-0.042047
267,-0.022101,-0.136401,-0.23968
268,0.125023,-0.150356,0.025752
269,0.203327,-0.148013,0.085814
270,0.23079,-0.084945,0.053068
271,0.266533,-0.025052,-0.124509
272,0.187508,0.102534,-0.216905
273,0.056943,0.188499,-0.241469
274,0.247256,0.227567,-0.185977
275,0.839337,0.377794,-0.155775
276,1.077392,0.358927,-0.323742
277,0.808366,0.334933,-0.348048
278,0.669653,0.522068,-0.209375
279,0.824578,0.379721,-0.232943
280,0.698906,0.249724,-0.234032
281,-0.222839,0.463528,-0.240735
282,-0.53482,0.623426,0.694978
283,-0.428809,0.97532,0.509113
284,-0.165796,0.788181,-0.221017
285,-0.125103,0.576144,-0.19452
286,-0.178722,0.395881,0.181127
287,-0.26597,0.15973,0.5533
288,0.115041,-0.053309,0.569848
289,-0.088456,-0.1806,0.488454
290,-0.187302,-0.279841,0.492358
291,-0.333172,-0.354261,0.614442
292,-0.403413,-0.350209,0.592581
293,-0.496391,-0.376925,0.672681
294,-0.515157,-0.397778,0.726074
295,-0.595087,-0.600156,0.733019
296,-0.569929,-0.690944,0.658619
297,-0.453444,-0.628291,0.380609
298,0.072342,-0.064938,-0.154461
299,0.091616,0.51093,-0.67405
300,1.847189,2.303321,-1.589012
301,0.08197,-0.104501,-0.418379
302,-0.106219,-0.444091,-0.169029
303,-0.477561,-0.685948,0.085468
304,-0.35389,0.071095,2.094586
305,-0.457491,0.458089,0.961112
306,0.217304,1.851931,-0.620304
307,-0.939789,-0.92848,0.475415
308,-0.484783,-0.324936,1.153327
309,-0.251143,-0.218216,1.26636
310,0.029393,0.133018,0.860898
311,0.196116,0.776023,0.338378
312,0.195056,0.415729,-0.009944
313,-0.077674,0.022605,0.293884
314,-0.334054,-0.000768,0.490582
315,-0.364963,-0.082283,0.425264
316,-0.263111,-0.282566,0.174808
317,-0.081955,-0.189591,0.176897
318,0.100588,-0.048787,0.036452
319,0.155346,-0.142663,-0.134606
320,0.064108,-0.199715,-0.099936
321,0.056193,-0.188585,-0.045428
322,0.107926,-0.157368,0.032655
323,0.272475,-0.069445,-0.029168
324,0.258226,-0.058444,-0.08009
325,0.277785,0.026384,-0.129939
326,0.216187,0.109803,-0.201459
327,0.218883,0.183487,-0.122089
328,0.698535,0.264491,-0.040732
329,1.043808,0.401846,-0.226955
330,0.63031,0.366799,-0.40621
331,0.447602,0.161526,-0.246679
332,0.769331,0.228833,-0.278527
333,0.59803,0.306917,-0.263385
334,-0.286293,0.495798,-0.189811
335,-0.507013,0.623507,0.292434
336,-0.698407,0.85233,0.81732
337,-0.240144,0.978464,-0.061036
338,-0.096973,0.745841,-0.31263
339,-0.000517,0.47413,-0.105707
340,-0.300445,0.247705,0.416207
341,-0.31413,0.133943,0.468515
342,-0.071657,-0.117293,0.447349
343,-0.127936,-0.230228,0.433701
344,-0.2161,-0.245176,0.513716
345,-0.297986,-0.358451,0.567747
346,-0.48125,-0.402122,0.641291
347,-0.611271,-0.376636,0.762985
348,-0.561186,-0.401476,0.731754
349,-0.544544,-0.700404,0.667659
350,-0.518275,-0.729237,0.580866
351,-0.383401,-0.535339,0.187426
352,0.156482,0.382955,-0.578821
353,1.899194,2.090592,-1.63785
354,0.276311,0.827255,-0.731161
355,-0.11164,-0.364643,-0.090645
356,-0.577608,-0.660055,0.214202
357,-0.404993,-0.611603,0.810105
358,-0.339692,-0.125526,1.7155
359,-0.257538,1.369563,-1.248166
360,1.017493,2.465266,-0.386021
361,-0.959689,-0.852435,0.650786
362,-0.873594,-0.480394,0.771346
363,-0.524868,-0.401229,1.223158
364,-0.294706,-0.17569,0.795959
365,0.208644,0.80156,0.453405
366,0.414584,0.698843,0.196616
367,0.142067,-0.007288,0.329069
368,-0.442427,0.021128,0.380395
369,-0.457331,-0.064758,0.292191
370,-0.402551,-0.138642,0.1906
371,-0.038008,-0.193568,0.201145
372,0.025255,-0.06652,0.146414
373,0.112031,-0.177354,-0.052839
374,0.018223,-0.236233,-0.106089
375,0.018238,-0.185489,-0.147934
376,0.061631,-0.120199,-0.089822
377,0.120957,-0.131465,-0.015822
378,0.199302,-0.094119,-0.052662
379,0.324175,0.050075,-0.100031
380,0.24853,0.160198,-0.153056
381,0.271527,0.149855,-0.1999
382,0.36746,0.163316,-0.238874
383,0.909148,0.303286,-0.237508
384,0.695094,0.30015,-0.271283
385,0.76425,0.481104,-0.369255
386,0.828349,0.561135,-0.388317
387,0.54503,0.274316,-0.232628
388,-0.398388,0.641936,-0.372907
389,-0.641375,0.877637,0.865176
390,-0.685042,1.087878,1.091624
391,-0.202704,0.761518,-0.445588
392,-0.248175,0.628587,-0.498863
393,-0.157879,0.386108,-0.000706
394,-0.370659,0.158421,0.511013
395,0.107754,-0.199063,0.48197
396,0.157651,-0.272415,0.437153
397,-0.105228,-0.348596,0.488957
398,-0.335833,-0.37076,0.568808
399,-0.370354,-0.405187,0.603473
400,-0.628099,-0.379478,0.699079
401,-0.670931,-0.436469,0.754072
402,-0.654686,-0.642637,0.715777
403,-0.535558,-0.849994,0.618347
404,-0.439322,-0.76183,0.330857
405,0.068967,-0.421178,-0.181539
406,0.845207,1.174347,-1.255565
407,2.02705,2.873761,-1.545667
408,0.10519,-0.008627,-0.710066
409,-0.766735,-0.578543,0.099381
410,-0.806922,-0.182438,0.938851
411,-0.770888,0.133119,1.862106
412,0.144298,1.179583,-1.383735
413,0.079643,1.2208,-0.015884
414,-0.887806,-0.619869,0.081041
415,-0.441438,-0.155637,1.293025
416,-0.175431,0.086788,0.907149
417,0.059174,0.360376,0.484796
418,0.14174,0.474894,0.113074
419,-0.092016,0.129734,0.172229
420,-0.308514,0.063485,0.360882
421,-0.37383,-0.085415,0.411385
422,-0.106905,-0.249582,0.192013
423,-0.023133,-0.156653,0.16516
424,0.084343,-0.069715,0.114149
425,0.156668,-0.282567,-0.1157
426,0.16707,-0.374805,-0.179862
427,-0.012694,-0.250628,-0.093956
428,0.008848,-0.145392,0.014976
429,0.096615,-0.093089,-0.015838
430,0.160393,-0.02941,-0.108082
431,0.253881,0.115475,-0.159723
432,0.305977,0.129873,-0.186612
433,0.352136,0.156128,-0.205603
434,1.030797,0.350378,-0.135928
435,1.01613,0.403188,-0.403584
436,0.547162,0.311818,-0.483908
437,0.498549,0.044638,-0.54201
438,0.744825,0.09154,-0.42028
439,0.075828,0.363492,-0.22754
440,-0.426272,0.833692,0.86377
441,-0.624965,1.185669,0.907316
442,-0.102518,1.232764,-0.450977
443,-0.124369,0.916486,-0.291913
444,-0.151104,0.440821,-0.014432
445,-0.332141,0.303535,0.287011
446,-0.379592,0.245554,0.309477
447,-0.159557,-0.063006,0.391867
448,-0.080162,-0.300871,0.33983
449,-0.205183,-0.277924,0.311909
450,-0.323115,-0.236754,0.566106
451,-0.677714,-0.334886,0.710686
452,-0.672256,-0.321789,0.737774
453,-0.685079,-0.426258,0.732798
454,-0.780916,-0.975728,0.686296
455,-0.678747,-0.831055,0.447014
456,-0.053932,-0.499896,-0.015086
457,0.593643,1.121529,-1.26279
458,1.858775,2.478946,-1.768113
459,0.255007,-0.069614,-0.526645
460,-0.720404,-0.382873,0.10913
461,-0.749622,-0.072303,0.810936
462,-0.613231,0.306084,1.682172
463,0.116197,2.204463,-1.600401
464,-0.273779,-0.499079,0.880437
465,-0.902521,-1.261294,0.962408
466,-0.319663,-0.317456,1.512465
467,-0.230515,0.299006,1.090735
468,0.158552,0.724748,0.179621
469,0.053855,0.493602,0.309531
470,-0.067378,0.128968,0.236412
471,-0.239085,0.107313,0.312719
472,-0.404583,-0.016419,0.39363
473,-0.248552,-0.173226,0.328186
474,-0.131569,-0.191036,0.270209
475,0.130023,-0.225247,0.190709
476,0.017325,-0.137429,-0.002932
477,0.012929,-0.171355,-0.07438
478,0.001668,-0.229506,-0.129553
479,-0.133379,-0.23119,-0.100029
480,-0.007967,-0.147397,0.007815
481,0.237299,-0.095997,-0.055223
482,0.318145,-0.024244,-0.085678
483,0.38003,0.158618,-0.139962
484,0.26037,0.161019,-0.168982
485,0.34421,0.195631,-0.165483
486,0.865991,0.391606,-0.200352
487,0.879194,0.35484,-0.402346
488,0.670638,0.238585,-0.390161
489,0.690203,-0.06384,-0.461797
490,0.736909,0.174956,-0.410905
491,0.154056,0.233717,-0.26944
492,-0.116077,0.423399,0.066801
493,-0.453172,1.133301,0.54404
494,-0.225512,1.334556,0.061871
495,-0.023456,1.457131,-0.192297
496,-0.076882,0.420192,0.075872
497,-0.204512,0.443816,0.155711
498,-0.388517,0.37688,0.359263
499,-0.138278,-0.055109,0.337649
500,-0.157931,-0.226005,0.371768
501,-0.360671,-0.26062,0.360696
502,-0.48766,-0.374141,0.611675
503,-0.529064,-0.385643,0.626464
504,-0.66965,-0.356979,0.68883
505,-0.753734,-0.448415,0.739858
506,-0.807533,-0.753424,0.831745
507,-0.765702,-0.746908,0.631943
508,-0.334326,-0.546929,0.090568
509,-0.003529,0.327877,-0.815117
510,2.294067,2.425405,-1.94015
511,0.463324,0.908778,-0.792179
512,-0.048149,-0.331463,-0.116023
513,-0.790058,-0.14391,0.191523
514,-0.69467,0.417172,1.794822
515,-0.450758,0.913636,-0.118294
516,0.390893,1.686091,-1.263198
517,-0.924992,-0.878628,0.523755
518,-0.531248,-0.191617,1.099634
519,-0.428664,-0.106302,1.416997
520,-0.121347,0.639118,0.358756
521,0.105002,0.428673,0.344437
522,0.146825,0.230468,0.307156
523,-0.011986,0.160405,0.290788
524,-0.302086,-0.029836,0.386635
525,-0.241929,-0.111913,0.332134
526,0.091291,-0.259549,0.265905
527,0.154183,-0.199895,0.147653
528,0.11196,-0.196427,0.069153
529,-0.065093,-0.16544,0.025005
530,-0.057926,-0.218587,-0.088251
531,-0.083362,-0.192372,-0.254331
532,0.075755,-0.079429,-0.038374
533,0.112736,-0.019451,0.058227
534,0.271667,0.068092,-0.037981
535,0.432476,0.091183,-0.319177
536,0.238587,0.199257,-0.196308
537,0.751204,0.243369,0.036971
538,0.958261,0.32297,-0.380586
539,0.558051,0.340786,-0.28838
540,0.475227,0.300082,-0.133175
541,0.627454,0.270163,-0.368019
542,0.482402,0.16429,-0.39122
543,-0.265728,0.530793,-0.323458
544,-0.703518,0.744764,0.695379
545,-0.553818,1.035803,0.366788
546,-0.234173,0.794393,-0.353848
547,-0.213713,0.472919,-0.175213
548,-0.180261,0.273848,0.158727
549,-0.416185,0.270112,0.372012
550,-0.207882,-0.043336,0.44362
551,-0.204898,-0.223176,0.28532
552,-0.165796,-0.334757,0.338649
553,-0.265937,-0.348288,0.446294
554,-0.369637,-0.362132,0.515456
555,-0.379585,-0.322723,0.549415
556,-0.579823,-0.274098,0.638604
557,-0.68763,-0.495814,0.627208
558,-0.679859,-0.650356,0.56817
559,-0.634371,-0.745513,0.455935
560,-0.207189,-0.509768,-0.171492
561,0.39756,0.17503,-0.434259
562,1.82754,1.819737,-1.368642
563,0.335008,0.788043,-0.958867
564,-0.105175,-0.329219,-0.272809
565,-0.528959,-0.826386,0.162774
566,-0.395141,-1.17013,2.220952
567,-1.205312,-0.396779,1.999608
568,-1.034617,2.90594,-4.11603
569,1.556119,2.546178,0.478578
570,-0.450584,-0.456615,0.88752
571,-0.580127,-0.493224,1.204527
572,-0.49223,-0.564126,1.153463
573,-0.285247,-0.480236,0.877932
574,0.228342,1.297725,0.042356
575,0.283579,0.956781,-0.151083
576,-0.02042,0.181592,0.264516
577,-0.399338,-0.256105,0.521736
578,-0.498899,-0.287854,0.398243
579,-0.362235,-0.216385,0.220605
580,-0.081653,-0.1121,0.153205
581,0.202711,-0.161713,0.004092
582,0.178676,-0.297847,-0.146007
583,-0.002747,-0.169735,-0.245585
584,0.108254,-0.044097,0.017662
585,0.146843,0.040369,-0.036154
586,0.247365,0.110238,-0.150854
587,0.246062,0.126473,-0.261176
588,0.361891,0.185212,-0.255421
589,0.704471,0.238882,-0.13884
590,0.990316,0.288093,-0.209334
591,0.779546,0.335654,-0.445638
592,0.490202,-0.019726,-0.482131
593,0.729252,-0.064968,-0.399995
594,0.516722,0.235566,-0.252959
595,0.032062,0.580156,-0.048771
596,-0.55272,1.053936,0.929636
597,-0.539287,1.361869,0.068671
598,-0.02809,0.954926,-0.383082
599,-0.035114,0.449491,-0.090242
600,-0.146221,0.369627,0.291939
601,-0.31329,0.254251,0.352315
602,-0.116955,-0.011015,0.324805
603,-0.146977,-0.177662,0.322821
604,-0.304602,-0.248154,0.354598
605,-0.33871,-0.173572,0.53174
606,-0.500409,-0.215703,0.675835
607,-0.601617,-0.264779,0.736335
608,-0.70654,-0.317251,0.724259
609,-0.727505,-0.577715,0.73345
610,-0.792388,-0.839429,0.664783
611,-0.57774,-0.664059,0.24739
612,0.108862,-0.20496,-0.164902
613,1.265862,1.412941,-1.148657
614,1.303877,1.804151,-1.394544
615,-0.271687,-0.320517,-0.033355
616,-0.691506,-0.666296,0.24522
617,-0.564438,-0.780971,0.872418
618,-0.92638,-0.014111,1.534326
619,-0.311349,2.239462,-2.766318
620,1.226781,3.287849,-1.248116
621,-0.308707,-0.226793,1.268484
622,-0.691206,-0.177906,1.048037
623,-0.475646,-0.118421,1.370811
624,-0.021421,0.114694,0.85101
625,0.395135,0.613497,0.298485
626,0.21879,0.26425,0.006104
627,-0.212942,0.127786,0.276926
628,-0.383888,-0.014145,0.43887
629,-0.484083,-0.203256,0.322266
630,-0.309245,-0.208746,0.146893
631,-0.081645,-0.054446,0.242307
632,0.160367,-0.163804,0.050628
633,0.19209,-0.259818,-0.096045
634,-0.053243,-0.250578,-0.1067
635,-0.143222,-0.217413,-0.044717
636,-0.109924,-0.185529,0.013532
637,0.068722,-0.034255,-0.017073
638,0.166559,0.154153,-0.031057
639,0.184297,0.213872,-0.044423
640,0.101044,0.149798,-0.07262
641,0.920733,0.35704,-0.100224
642,1.163098,0.400621,-0.155749
643,1.081985,0.375959,-0.274112
644,0.612565,0.122585,-0.368824
645,0.614285,0.119623,-0.333589
646,0.707157,0.198865,-0.307295
647,-0.12755,0.484642,-0.256707
648,-0.394064,0.700401,0.178047
649,-0.603085,0.814833,0.696523
650,-0.100348,1.022876,-0.060421
651,-0.051935,0.667584,-0.24689
652,-0.088512,0.367984,-0.048659
653,-0.285938,0.328927,0.309497
654,-0.352075,0.174435,0.484791
655,0.028255,-0.205114,0.286358
656,-0.069828,-0.267876,0.302148
657,-0.258967,-0.291363,0.426402
658,-0.280258,-0.261717,0.545058
659,-0.570776,-0.294836,0.624561
660,-0.728325,-0.269199,0.701346
661,-0.715793,-0.405626,0.715348
662,-0.744516,-0.655866,0.651545
663,-0.728073,-0.65745,0.57865
664,-0.297955,-0.367947,-0.020733
665,0.022427,-0.124786,-0.216974
666,1.297534,1.408896,-1.219749
667,0.392664,0.729501,-0.935877
668,0.111933,-0.043826,-0.551674
669,-0.759643,0.375114,0.214647
670,-0.548151,0.476649,1.514604
671,-0.428325,0.165619,0.366547
672,-0.736222,0.499426,-0.671627
673,-0.349316,-0.27927,0.992351
674,-0.258547,0.001848,1.050635
675,-0.079807,0.36642,0.875612
676,0.022916,0.241071,0.443122
677,0.006221,0.19935,0.311235
678,-0.19166,0.302705,0.200289
679,-0.36553,0.107799,0.394718
680,-0.395622,-0.00298,0.424836
681,-0.243166,-0.08391,0.396219
682,-0.021011,-0.161414,0.302733
683,0.146305,-0.13872,0.216426
684,0.161392,-0.081968,0.086364
685,0.049449,-0.140481,-0.046324
686,-0.037337,-0.227894,-0.107801
687,-0.021394,-0.210869,-0.117679
688,0.152319,-0.129423,-0.015536
689,0.202772,-0.004506,0.045876
690,0.300179,0.026933,-0.066105
691,0.225017,0.022055,-0.278389
692,0.086202,0.116427,-0.237317
693,0.593255,0.24963,-0.07985
694,1.114147,0.326277,-0.120188
695,0.802905,0.400558,-0.399605
696,0.472082,0.221677,-0.208645
697,0.723483,0.290817,-0.341124
698,0.659917,0.114788,-0.286513
699,0.157109,0.326686,-0.465175
700,-0.427626,0.600023,0.116382
701,-0.662129,0.964009,0.877438
702,-0.247547,1.10018,-0.061732
703,-0.184189,0.523566,-0.176223
704,-0.131952,0.367932,-0.037615
705,-0.387703,0.275798,0.276486
706,-0.193531,-0.014216,0.460385
707,-0.07065,-0.175714,0.368744
708,-0.141996,-0.319384,0.373717
709,-0.273212,-0.344699,0.511783
710,-0.359521,-0.326249,0.559223
711,-0.572277,-0.305905,0.602581
712,-0.659772,-0.270536,0.685231
713,-0.730331,-0.438162,0.67274
714,-0.741571,-0.731202,0.608489
715,-0.699503,-0.64071,0.392041
716,-0.229715,-0.349027,-0.035689
717,0.26403,0.689708,-0.691961
718,2.513912,2.265834,-1.512191
719,1.367079,1.834626,-1.32983
720,-0.260971,-0.40227,-0.172043
721,-0.739702,-0.421287,0.362769
722,-0.641116,-0.203623,2.152202
723,-0.7974,-0.121922,1.730389
724,0.91681,2.378799,-1.123645
725,1.028867,1.850706,0.224966
726,-0.78765,-0.396809,0.835316
727,-0.517042,-0.092541,1.108354
728,-0.384365,-0.004326,0.923373
729,-0.078123,0.280254,0.530981
730,0.100364,0.564996,0.283474
731,-0.060432,0.211349,0.240697
732,-0.15231,0.125902,0.340038
733,-0.37892,-0.107997,0.391101
734,-0.324799,-0.278586,0.237824
735,-0.109616,-0.172997,0.212722
736,0.036274,-0.101986,0.10023
737,0.166537,-0.157546,-0.124582
738,0.157013,-0.254895,-0.17065
739,-0.00732,-0.266309,0.004339
740,-0.01704,-0.199735,0.102605
741,0.059147,-0.104681,0.08529
742,0.090161,-0.050002,-0.010818
743,0.195076,0.125308,-0.058569
744,0.283337,0.248027,-0.123898
745,0.31995,0.168919,-0.20778
746,0.652763,0.231422,-0.178775
747,1.005834,0.41864,-0.270234
748,0.585756,0.233371,-0.349277
749,0.510271,0.074169,-0.391012
750,0.834672,0.070811,-0.431111
751,0.397911,0.051345,-0.346054
752,0.104705,0.170305,-0.336556
753,-0.33837,0.675591,0.570074
754,-0.327969,1.286396,0.0789
755,-0.14355,1.26895,-0.335095
756,-0.11797,0.504497,-0.072622
757,-0.130704,0.349718,0.189069
758,-0.460667,0.342288,0.3421
759,-0.185808,-0.011679,0.39111
760,-0.067593,-0.295157,0.376779
761,-0.229359,-0.261806,0.370042
762,-0.319243,-0.305542,0.539774
763,-0.462143,-0.341836,0.622809
764,-0.69411,-0.3485,0.656931
765,-0.72862,-0.422041,0.699192
766,-0.803133,-0.680798,0.738936
767,-0.788672,-0.76278,0.690717
768,-0.61096,-0.588355,0.265093
769,-0.128945,-0.044967,-0.361932
770,1.969017,1.793526,-1.671035
771,2.662895,2.638555,-1.580613
772,-0.001489,-0.459272,-0.337607
773,-0.672611,-0.837252,0.767082
774,-0.813733,-0.538977,2.013132
775,-1.287119,0.228889,1.211487
776,0.810404,3.132862,-2.392186
777,0.472483,0.722541,1.798398
778,-1.070766,-1.137593,0.060305
779,-0.592926,-0.195552,1.325856
780,-0.551902,-0.132517,1.014306
781,-0.408366,0.161937,0.734766
782,0.006802,0.796685,0.214096
783,0.059141,0.234276,0.300318
784,0.014915,0.118864,0.396266
785,-0.363065,-0.124973,0.380534
786,-0.32721,-0.192919,0.247823
787,-0.192069,-0.183143,0.226904
788,-0.098885,-0.145593,0.225577
789,0.069137,-0.172705,0.006758
790,0.122499,-0.220986,-0.092834
791,0.025167,-0.222079,-0.103521
792,0.0057,-0.192292,0.013025
793,0.137343,-0.105948,0.054714
794,0.176493,-0.070937,-0.018154
795,0.269534,0.038076,-0.077348
796,0.276342,0.199338,-0.084805
797,0.285729,0.14846,-0.103449
798,0.500638,0.174285,-0.127342
799,1.113564,0.36334,-0.259655
800,1.051069,0.293026,-0.292304
801,0.848804,0.201015,-0.161156
802,0.761214,0.246735,-0.337062
803,0.653821,0.19011,-0.314706
804,-0.176461,0.415363,-0.120965
805,-0.525636,0.796851,0.725776
806,-0.567998,1.111515,0.747837
807,-0.186375,1.106336,-0.191706
808,-0.162245,0.574901,-0.1334
809,-0.188012,0.391307,0.157957
810,-0.305578,0.220542,0.449289
811,-0.021169,-0.097574,0.389316
812,-0.1897,-0.199615,0.385372
813,-0.202601,-0.259451,0.40234
814,-0.311056,-0.355303,0.537378
815,-0.486872,-0.385589,0.608579
816,-0.697531,-0.304145,0.647838
817,-0.683031,-0.377127,0.701985
818,-0.766716,-0.586975,0.746283
819,-0.776694,-0.766544,0.70899
820,-0.547569,-0.557523,0.2906
821,-0.162707,-0.138263,-0.105656
822,1.602548,1.528694,-1.360894
823,1.562476,1.967605,-1.322143
824,0.10936,-0.287868,-0.365517
825,-0.505366,-0.688409,0.038573
826,-0.564226,-0.881761,1.69996
827,-1.293081,0.437754,0.048001
828,-0.679494,2.147383,-3.203203
829,1.774371,2.416868,0.425669
830,-0.733713,-0.585793,0.106708
831,-0.836489,-0.218291,1.390888
832,-0.628014,-0.186398,1.232159
833,-0.35769,-0.195243,0.926563
834,-0.170752,0.09354,0.764371
835,0.3223,0.615842,0.023207
836,-0.21923,0.073661,0.384463
837,-0.303286,-0.000434,0.453255
838,-0.411143,-0.257512,0.335628
839,-0.306924,-0.240208,0.263963
840,-0.207888,-0.2059,0.189574
841,0.135689,-0.141931,-0.024024
842,0.17343,-0.202135,-0.0521
843,0.135968,-0.278478,-0.049515
844,0.038646,-0.145941,0.025213
845,0.118438,-0.12127,0.054174
846,0.236827,-0.042949,-0.042067
847,0.373484,0.119208,-0.172274
848,0.338974,0.168268,-0.201365
849,0.323037,0.15923,-0.171821
850,0.89646,0.288192,-0.073639
851,1.029535,0.365127,-0.303483
852,0.834319,0.28117,-0.365237
853,0.655126,0.052179,-0.364926
854,0.844592,0.217794,-0.366462
855,0.257927,0.262146,-0.311331
856,-0.479974,0.677201,0.194974
857,-0.713111,0.959151,0.800749
858,-0.480776,1.204795,0.322002
859,-0.063708,0.818724,-0.182025
860,-0.055702,0.406145,-0.032002
861,-0.245845,0.305468,0.263228
862,-0.119809,0.009405,0.427175
863,0.015763,-0.199597,0.384438
864,-0.154788,-0.312172,0.384198
865,-0.333171,-0.351212,0.445896
866,-0.453949,-0.313491,0.591057
867,-0.554492,-0.290214,0.654142
868,-0.725225,-0.262277,0.678787
869,-0.75839,-0.322803,0.712502
870,-0.774562,-0.560015,0.692886
871,-0.721512,-0.682585,0.580379
872,-0.521716,-0.481993,0.15554
873,0.008122,0.100394,-0.509259
874,2.253967,1.865739,-1.498014
875,0.930939,1.44956,-1.019144
876,0.02749,-0.373908,-0.367216
877,-0.70312,-0.659271,0.081086
878,-0.970762,-0.477267,2.667204
879,-1.172565,-0.059311,1.914735
880,-1.189526,0.727885,-0.692445
881,-0.406369,0.094951,1.646988
882,-1.051108,-0.980487,0.533183
883,-0.779962,-0.288206,1.289234
884,-0.623332,-0.227176,1.014782
885,-0.430946,0.125571,0.799536
886,0.343461,0.979347,0.023999
887,0.323634,0.627655,0.006294
888,0.006466,0.09552,0.359168
889,-0.363207,-0.222328,0.495348
890,-0.367957,-0.28057,0.40657
891,-0.32235,-0.252759,0.256833
892,-0.056834,-0.092134,0.166704
893,0.125014,-0.127364,-0.065754
894,0.131958,-0.166307,-0.165777
895,-0.037931,-0.206858,-0.103144
896,0.039532,-0.13064,0.024373
897,0.172262,-0.012374,0.071005
898,0.374816,0.093394,-0.084615
899,0.458213,0.055235,-0.203373
900,0.390868,0.056079,-0.336239
901,0.529644,0.248144,-0.172369
902,0.859555,0.359766,-0.276512
903,0.735619,0.435867,-0.487242
904,0.452355,0.182684,-0.398717
905,0.653618,-0.01257,-0.432998
906,0.757716,0.142852,-0.410222
907,0.195684,0.225291,-0.434642
908,-0.314934,0.646406,0.148654
909,-0.528624,1.002649,0.924022
910,-0.267996,1.324041,0.04421
911,-0.165701,1.189137,-0.295548
912,-0.303942,0.446773,0.014721
913,-0.325828,0.284652,0.261026
914,-0.470503,0.20167,0.390454
915,-0.174358,-0.171069,0.36419
916,-0.17064,-0.357694,0.359279
917,-0.196005,-0.360726,0.440862
918,-0.400755,-0.349286,0.557878
919,-0.541711,-0.287727,0.613572
920,-0.675317,-0.279034,0.669564
921,-0.736734,-0.3289,0.683126
922,-0.76354,-0.681943,0.627219
923,-0.760883,-0.791411,0.472369
924,-0.344317,-0.522452,0.107489
925,0.2424,0.223491,-0.401466
926,2.280877,2.015098,-1.342888
927,0.77369,1.049422,-1.124038
928,-0.581061,-0.429476,-0.059164
929,-0.895367,0.059125,0.803024
930,-0.763051,0.529725,1.590343
931,0.247389,1.557905,-1.29949
932,-0.220044,0.15081,0.347974
933,-1.02607,-0.827072,0.58312
934,-0.511243,-0.06295,1.526141
935,-0.261419,0.334905,1.104514
936,0.160825,0.430591,0.437089
937,0.081458,0.384067,0.201697
938,-0.174617,0.171757,0.231176
939,-0.390167,0.128765,0.455519
940,-0.447949,-0.0047,0.434572
941,-0.343451,-0.090813,0.323204
942,-0.10887,-0.10212,0.278074
943,0.07304,-0.145387,0.26048
944,0.105678,-0.148489,0.110417
945,0.095988,-0.201377,-0.076711
946,0.012324,-0.295743,-0.0905
947,-0.078733,-0.225035,-0.048133
948,0.012162,-0.16187,0.050239
949,0.074066,-0.099996,-0.040391
950,0.208514,-0.010964,-0.125863
951,0.067081,0.083933,-0.106037
952,0.002198,0.14453,-0.096344
953,0.444782,0.213118,0.001884
954,0.837369,0.227039,0.013884
955,0.974458,0.294921,-0.314546
956,0.63528,0.219568,-0.225314
957,0.587751,0.201362,-0.145793
958,0.670246,0.133867,-0.246792
959,0.240973,0.242403,-0.372012
960,-0.398086,0.615198,-0.183213
961,-0.798268,0.891382,0.754118
962,-0.376626,1.077219,0.231074
963,-0.116194,0.768936,-0.341153
964,-0.136227,0.490523,-0.136628
965,-0.152959,0.29898,0.227202
966,-0.375651,0.20994,0.344739
967,-0.146581,-0.087879,0.360688
968,-0.241702,-0.185582,0.319558
969,-0.288597,-0.286112,0.316422
970,-0.414794,-0.273292,0.501861
971,-0.589478,-0.254293,0.594019
972,-0.588892,-0.239919,0.618763
973,-0.68599,-0.311592,0.641712
974,-0.775466,-0.539124,0.609693
975,-0.76176,-0.647543,0.577254
976,-0.531347,-0.379151,0.117506
977,0.006031,0.133,-0.290482
978,1.755011,1.404336,-1.256982
979,2.32181,1.827081,-1.374202
980,0.101894,-0.265826,-0.348838
981,-0.540679,-0.539464,0.010899
982,-0.65135,-0.557493,1.079745
983,-0.832878,-0.113459,2.064979
984,-0.748396,1.637205,-2.477656
985,1.529909,2.351321,-0.192611
986,0.187794,0.40358,1.13295
987,-0.744309,-0.102714,1.191495
988,-0.615624,-0.115665,1.229573
989,-0.35958,-0.167665,0.88704
990,-0.012937,0.399807,0.498586
991,0.227932,0.670734,0.093861
992,-0.117806,0.213207,0.271325
993,-0.305246,0.07067,0.464685
994,-0.428726,-0.130415,0.41443
995,-0.299151,-0.182375,0.279086
996,-0.198759,-0.197778,0.233945
997,-0.012486,-0.180185,0.103463
998,0.192903,-0.236051,-0.063372
999,0.160892,-0.276752,-0.052338
1000,0.015324,-0.2459,-0.040757
1001,0.068168,-0.13747,0.018832
1002,0.086567,-0.100134,-0.030711
1003,0.142913,-0.067929,-0.063936
1004,0.18436,0.210876,-0.134748
1005,0.192794,0.183628,-0.137144
1006,0.235275,0.126708,-0.11428
1007,0.888599,0.269695,-0.09804
1008,0.978419,0.346598,-0.310336
1009,0.609978,0.212799,-0.357006
1010,0.683795,0.18481,-0.281517
1011,0.787393,0.212346,-0.283515
1012,0.306542,0.144822,-0.301346
1013,-0.550355,0.78662,0.342679
1014,-0.713239,0.990503,0.759585
1015,-0.286907,1.217525,0.113773
1016,-0.09175,0.797686,-0.276331
1017,-0.069257,0.384843,-0.000456
1018,-0.34958,0.368331,0.3414
1019,-0.274313,0.137563,0.410141
1020,-0.042842,-0.262404,0.260219
1021,-0.285685,-0.198151,0.235899
1022,-0.392614,-0.227024,0.45042
1023,-0.45814,-0.261533,0.520386
1024,-0.655839,-0.254505,0.584413
1025,-0.775732,-0.274724,0.611415
1026,-0.818516,-0.402771,0.643691
1027,-0.8634,-0.726621,0.618771
1028,-0.787968,-0.67831,0.352261
1029,-0.156736,-0.521588,-0.077505
1030,0.543573,0.567883,-0.661877
1031,2.385204,1.903036,-1.46452
1032,0.440771,0.370103,-0.836045
1033,-0.133551,-0.38259,-0.2062
1034,-0.675615,-0.557571,0.618336
1035,-1.026294,-0.206441,2.485871
1036,-1.518995,1.267588,-1.827433
1037,2.001406,2.846282,0.237916
1038,-0.789083,-0.732075,1.009446
1039,-0.838576,-0.256203,0.730487
1040,-0.530609,0.078871,1.090077
1041,-0.322467,0.20018,0.743365
1042,-0.105058,0.355245,0.424938
1043,0.014792,0.544036,0.344424
1044,0.034038,0.352681,0.351291
1045,-0.274332,0.160342,0.379952
1046,-0.39489,-0.129011,0.304794
1047,-0.329519,-0.17789,0.347378
1048,-0.147912,-0.208618,0.337721
1049,-0.043346,-0.255506,0.253894
1050,0.086006,-0.240496,0.061209
1051,0.0163,-0.248392,-0.117733
1052,-0.099022,-0.197386,-0.135037
1053,0.00044,-0.166941,-0.068772
1054,0.169603,-0.04851,0.000223
1055,0.234718,0.148081,-0.007171
1056,0.261306,0.152592,-0.183045
1057,0.176511,0.123975,-0.241487
1058,0.820452,0.273922,-0.056001
1059,1.138185,0.375838,-0.186242
1060,1.133657,0.404785,-0.377171
1061,0.44825,0.117138,-0.198762
1062,0.745136,0.219525,-0.398425
1063,0.546972,0.050657,-0.213949
1064,0.035239,0.336038,-0.412425
1065,-0.237887,0.607257,-0.090673
1066,-0.618643,1.07527,0.592697
1067,-0.288059,1.139307,0.123246
1068,-0.025438,0.813135,-0.227645
1069,-0.11665,0.324204,0.044309
1070,-0.36893,0.331688,0.364591
1071,-0.452209,0.298778,0.400889
1072,-0.095755,-0.206491,0.3369
1073,-0.22752,-0.240338,0.286044
1074,-0.259943,-0.212244,0.296656
1075,-0.419357,-0.25367,0.572798
1076,-0.701864,-0.241133,0.617433
1077,-0.663788,-0.24214,0.666307
1078,-0.813188,-0.359632,0.616399
1079,-0.849347,-0.659672,0.59479
1080,-0.776567,-0.707953,0.386183
1081,-0.36456,-0.53944,-0.024951
1082,0.045709,0.163868,-0.620517
1083,2.292689,1.734548,-1.336573
1084,0.725245,1.071005,-0.841724
1085,0.031874,-0.252667,-0.250192
1086,-0.701106,-0.332899,0.0339
1087,-0.817393,0.404658,1.684868
1088,-0.683962,1.009695,-0.30627
1089,0.405576,1.661541,-1.226759
1090,-0.880491,-0.665676,0.495814
1091,-0.535023,-0.251651,1.139898
1092,-0.44087,0.050699,1.258349
1093,-0.250591,0.384187,0.602812
1094,-0.083125,0.517873,0.371118
1095,0.013021,0.347911,0.285017
1096,-0.18465,0.120759,0.418852
1097,-0.359977,0.077146,0.43638
1098,-0.454183,-0.060819,0.333203
1099,-0.303555,-0.155514,0.326206
1100,-0.02959,-0.179916,0.252528
1101,0.009251,-0.128889,0.1833
1102,0.083897,-0.100683,0.106467
1103,0.07816,-0.250545,-0.070065
1104,-0.067305,-0.196212,-0.114913
1105,-0.06003,-0.154908,-0.067543
1106,0.131193,-0.066722,0.059972
1107,0.206596,0.003245,-0.039014
1108,0.215943,0.099237,-0.199229
1109,0.147012,0.141837,-0.198868
1110,0.248577,0.172058,-0.141553
1111,1.064756,0.269593,-0.074176
1112,1.083448,0.30344,-0.315122
1113,0.770985,0.283845,-0.319091
1114,0.683369,0.307207,-0.283372
1115,0.607662,0.169001,-0.287801
1116,0.388435,0.185669,-0.388442
1117,-0.401066,0.601997,0.155765
1118,-0.578741,0.686077,0.776232
1119,-0.490507,1.16433,0.432075
1120,-0.114285,0.808865,-0.262584
1121,-0.12208,0.431109,-0.012124
1122,-0.265923,0.309068,0.335
1123,-0.446368,0.243777,0.420968
1124,-0.125238,-0.15037,0.364096
1125,-0.258937,-0.308614,0.389129
1126,-0.348092,-0.329348,0.489286
1127,-0.460555,-0.32818,0.555503
1128,-0.58235,-0.339982,0.584995
1129,-0.655451,-0.330616,0.623743
1130,-0.76443,-0.356113,0.703607
1131,-0.815468,-0.484006,0.698148
1132,-0.729114,-0.690023,0.477673
1133,-0.525398,-0.394416,0.128869
1134,-0.240748,-0.154737,-0.08344
1135,2.496188,1.917121,-1.333195
1136,0.634082,0.973759,-0.905124
1137,-0.131976,-0.328754,-0.273789
1138,-0.733865,-0.55969,0.081917
1139,-0.687952,0.203808,1.994255
1140,-0.637281,0.489351,1.098335
1141,-0.358677,1.214717,-0.984443
1142,-1.076446,-0.735504,0.577488
1143,-1.030971,-0.557133,0.476002
1144,-0.609672,-0.145199,1.402771
1145,-0.449942,0.092375,1.076612
1146,-0.248506,0.177458,0.882506
1147,0.284084,0.612131,0.176154
1148,-0.232197,0.136068,0.318303
1149,-0.330408,0.110988,0.385223
1150,-0.396444,0.021146,0.404619
1151,-0.411077,-0.158096,0.312826
1152,-0.129223,-0.194999,0.229812
1153,0.092635,-0.139659,0.113823
1154,0.237889,-0.181162,-0.054943
1155,0.260778,-0.226524,-0.168695
1156,-0.070345,-0.213615,0.023532
1157,0.001104,-0.159068,0.129991
1158,0.071315,-0.123842,0.092993
1159,0.159797,-0.028817,-0.035553
1160,0.218916,0.119913,-0.093261
1161,0.168012,0.159601,-0.148717
1162,0.251284,0.188879,-0.157614
1163,0.800925,0.246558,-0.067458
1164,1.074544,0.337436,-0.249779
1165,0.71683,0.172344,-0.257806
1166,0.718873,0.194947,-0.266726
1167,0.777923,0.259114,-0.309918
1168,0.307241,0.202996,-0.357972
1169,-0.339807,0.573283,-0.002301
1170,-0.640079,0.912416,0.918043
1171,-0.260513,1.17803,0.008874
1172,-0.135431,0.809695,-0.238222
1173,-0.18384,0.399872,-0.018103
1174,-0.1741,0.297936,0.243987
1175,-0.150682,0.083506,0.438399
1176,-0.02485,-0.12829,0.397693
1177,-0.102036,-0.194605,0.327546
1178,-0.359875,-0.308708,0.489418
1179,-0.407957,-0.289403,0.53658
1180,-0.537028,-0.271711,0.587248
1181,-0.670785,-0.275273,0.682364
1182,-0.717707,-0.279534,0.692222
1183,-0.757806,-0.335668,0.709394
1184,-0.730881,-0.659513,0.467827
1185,-0.638311,-0.516792,0.269838
1186,-0.338427,-0.383187,0.055383
1187,2.397067,2.031498,-1.322847
1188,1.951104,2.167198,-1.286143
1189,0.148711,-0.023012,-0.608305
1190,-0.443928,-0.653609,-0.076986
1191,-0.660835,-0.75295,0.170432
1192,-0.764859,-0.06665,2.219377
1193,-0.328961,1.732725,-2.134766
1194,1.109628,2.582429,-0.524718
1195,-1.168516,-0.839062,0.570015
1196,-0.817884,-0.303679,1.253885
1197,-0.598785,-0.19328,1.20485
1198,-0.196042,0.35978,0.842941
1199,0.262239,0.918882,0.038326
1200,0.250884,0.586572,-0.24495
1201,-0.349129,0.098461,0.498404
1202,-0.491858,-0.08928,0.538653
1203,-0.449421,-0.197895,0.441976
1204,-0.135848,-0.197264,0.311968
1205,-0.025161,-0.130869,0.237942
1206,0.152809,-0.045444,0.077649
1207,0.099555,-0.305518,-0.101404
1208,0.032851,-0.253436,-0.028384
1209,0.031831,-0.132512,0.074682
1210,0.14249,-0.152036,0.04793
1211,0.207959,-0.096071,-0.08043
1212,0.255769,0.037005,-0.127762
1213,0.275279,0.101539,-0.144924
1214,0.313957,0.136719,-0.124816
1215,0.564786,0.190591,-0.105964
1216,1.069568,0.348464,-0.231624
1217,0.828342,0.238904,-0.191069
1218,0.75704,0.230013,-0.294247
1219,0.771778,0.225034,-0.379713
1220,0.320948,0.244147,-0.421666
1221,-0.347987,0.724759,-0.182723
1222,-0.725495,1.025419,0.899741
1223,-0.504225,1.178084,0.139439
1224,-0.262902,0.848618,-0.379099
1225,-0.199935,0.439216,-0.13417
1226,-0.191431,0.272999,0.262558
1227,-0.447352,0.249929,0.441458
1228,-0.095362,-0.165052,0.453669
1229,-0.153866,-0.245818,0.402422
1230,-0.252133,-0.302542,0.363706
1231,-0.359377,-0.28037,0.556616
1232,-0.50849,-0.278257,0.624304
1233,-0.697562,-0.264259,0.65013
1234,-0.748736,-0.263245,0.722321
1235,-0.877168,-0.574737,0.672841
1236,-0.772547,-0.801591,0.482967
1237,-0.531314,-0.572269,0.171304
1238,-0.0159,-0.044026,-0.293909
1239,1.691483,1.608957,-1.326129
1240,1.187378,1.908303,-1.23369
1241,-0.013961,-0.205577,-0.251578
1242,-0.7719,-0.593423,-0.049292
1243,-0.898327,0.074788,1.164383
1244,-0.556663,0.826459,0.62909
1245,1.086885,1.985697,-0.273538
1246,-0.731961,-0.67869,0.670463
1247,-0.874614,-0.335371,0.819946
1248,-0.492087,0.02784,1.45151
1249,-0.238067,0.336093,0.790895
1250,0.007215,0.451987,0.405757
1251,0.109369,0.495546,0.26584
1252,-0.09646,0.180257,0.375564
1253,-0.313672,0.06476,0.419882
1254,-0.319022,0.002426,0.395436
1255,-0.262228,-0.068908,0.34213
1256,-0.141053,-0.265773,0.233238
1257,-0.110501,-0.205761,0.110206
1258,-0.082521,-0.211458,0.046134
1259,-0.104493,-0.22315,-0.05836
1260,-0.173549,-0.201462,-0.11156
1261,-0.000211,-0.138173,0.072222
1262,0.094364,-0.019402,0.060606
1263,0.189197,0.022305,0.000698
1264,0.27059,0.1434,-0.160507
1265,0.119208,0.140012,-0.129494
1266,0.235945,0.153325,-0.101275
1267,1.245937,0.292369,-0.133353
1268,1.410994,0.296199,-0.232043
1269,0.845152,0.220599,-0.269294
1270,0.826539,0.299931,-0.337903
1271,0.811013,0.25898,-0.302696
1272,-0.151414,0.493822,-0.292274
1273,-0.679459,0.865117,0.571585
1274,-0.613722,1.136748,0.467146
1275,-0.18369,0.881225,-0.260676
1276,-0.153366,0.571343,-0.158229
1277,-0.122134,0.406312,0.07909
1278,-0.334335,0.332405,0.32624
1279,-0.325537,0.099874,0.399043
1280,-0.241559,-0.134631,0.39556
1281,-0.302229,-0.22362,0.38774
1282,-0.343449,-0.262296,0.4588
1283,-0.531088,-0.279364,0.585675
1284,-0.530227,-0.275063,0.627398
1285,-0.716737,-0.186352,0.672183
1286,-0.813914,-0.257735,0.713748
1287,-0.84724,-0.606717,0.572317
1288,-0.753439,-0.650076,0.269172
1289,-0.038893,0.024395,-0.576995
1290,0.829148,0.552233,-0.964657
1291,2.391427,2.435801,-1.282227
1292,-0.087807,-0.209328,-0.178126
1293,-0.495867,-0.375829,-0.022948
1294,-0.799844,-0.479646,-0.054022
1295,-0.602571,0.49169,1.054049
1296,-0.563302,1.067863,-0.752176
1297,0.963007,1.862256,0.244388
1298,-0.955782,-0.415749,0.602927
1299,-0.750694,-0.276249,1.205797
1300,-0.65696,-0.200075,1.36439
1301,-0.122847,0.423827,0.492129
1302,0.089237,0.621446,0.4551
1303,0.273339,0.674535,0.370453
1304,-0.209955,0.054921,0.399069
1305,-0.338573,0.042652,0.383817
1306,-0.401285,-0.136242,0.324226
1307,-0.233551,-0.225889,0.360275
1308,-0.152847,-0.234429,0.294815
1309,-0.022823,-0.153069,0.080667
1310,0.093728,-0.148482,-0.014081
1311,0.127011,-0.12581,-0.103019
1312,-0.000122,-0.148342,-0.0471
1313,0.064972,-0.06429,0.128604
1314,0.103678,-0.048008,0.101108
1315,0.271044,0.0074,-0.078059
1316,0.344124,0.069915,-0.189919
1317,0.304743,0.168431,-0.214385
1318,0.579542,0.27705,-0.080059
1319,1.060066,0.292013,-0.129921
1320,0.76239,0.298374,-0.324679
1321,0.491261,0.089262,-0.229756
1322,0.765237,0.104264,-0.322646
1323,0.623704,0.141136,-0.254302
1324,-0.021299,0.312108,-0.221546
1325,-0.489693,0.729535,0.649088
1326,-0.589209,1.210349,0.681806
1327,-0.074496,1.021875,-0.210447
1328,-0.073908,0.555572,-0.092559
1329,0.014227,0.364854,0.127715
1330,-0.345526,0.362597,0.431565
1331,-0.335467,0.176849,0.43666
1332,-0.125864,-0.05879,0.363312
1333,-0.177784,-0.247848,0.406303
1334,-0.365929,-0.20917,0.523133
1335,-0.494886,-0.19733,0.630102
1336,-0.63495,-0.222379,0.689774
1337,-0.720774,-0.242109,0.739377
1338,-0.754501,-0.34777,0.734625
1339,-0.772993,-0.617604,0.710577
1340,-0.742563,-0.589241,0.519822
1341,-0.599093,-0.530163,0.302977
1342,-0.028991,0.462679,-0.663638
1343,2.489908,1.927814,-1.156489
1344,0.475258,1.015514,-0.859996
1345,-0.247093,-0.264082,-0.275766
1346,-0.676425,0.421394,0.314026
1347,-0.338993,0.675501,1.207348
1348,-0.016032,0.720178,1.539136
1349,-1.244539,0.141422,-0.435305
1350,-1.244135,-0.400202,0.115432
1351,-0.922021,-0.364832,0.747633
1352,-0.384669,0.342814,0.954309
1353,-0.105584,0.525182,0.751452
1354,0.204298,0.66498,0.521943
1355,0.113546,0.015684,0.263666
1356,-0.062628,0.001072,0.300425
1357,-0.338418,-0.024133,0.445056
1358,-0.260761,-0.177284,0.384741
1359,-0.123789,-0.240419,0.317363
1360,0.096206,-0.106854,0.188224
1361,-0.031324,-0.100674,0.023644
1362,-0.016473,-0.187155,-0.092871
1363,-0.18168,-0.249936,-0.082074
1364,0.007215,-0.192594,0.131003
1365,0.118551,-0.104339,0.135519
1366,0.236516,0.048873,-0.10014
1367,0.143183,0.025004,-0.160099
1368,0.058098,0.134281,-0.055298
1369,0.49771,0.233555,0.030583
1370,1.215833,0.185613,0.097852
1371,1.165437,0.212099,-0.187624
1372,0.556224,0.230822,-0.240542
1373,0.403451,0.04584,-0.168001
1374,0.747864,0.10649,-0.305001
1375,0.342743,0.313206,-0.259945
1376,-0.372233,0.603987,-0.012759
1377,-0.79579,0.901821,0.617505
1378,-0.357705,1.058728,0.181083
1379,-0.043383,0.793749,-0.090892
1380,0.043902,0.429798,-0.079069
1381,-0.196728,0.304269,0.254572
1382,-0.427996,0.344246,0.420899
1383,-0.244787,0.107545,0.420342
1384,-0.149122,-0.214819,0.364092
1385,-0.224526,-0.271715,0.405122
1386,-0.292082,-0.233502,0.47855
1387,-0.498029,-0.244688,0.584585
1388,-0.657371,-0.27293,0.596315
1389,-0.664771,-0.302979,0.65391
1390,-0.778205,-0.452806,0.666348
1391,-0.672009,-0.635337,0.630619
1392,-0.465585,-0.427523,0.295055
1393,-0.015663,-0.13981,-0.077954
1394,2.250263,1.863772,-1.326831
1395,1.897645,2.037539,-1.333328
1396,0.077737,0.20439,-0.622545
1397,-0.543129,-0.519988,-0.05012
1398,-0.842433,-0.531782,0.657155
1399,-0.791087,-0.082583,2.153691
1400,0.301891,1.924653,-1.840845
1401,1.371565,2.581764,-0.812495
1402,-1.116851,-0.78751,-0.098811
1403,-0.622429,-0.091881,1.377459
1404,-0.501052,-0.012712,1.12926
1405,-0.178332,0.162999,0.762088
1406,0.105303,0.5741,0.279437
1407,0.100805,0.332472,0.07832
1408,-0.22321,0.204368,0.35469
1409,-0.34583,-0.016519,0.415564
1410,-0.365826,-0.159694,0.383865
1411,-0.158905,-0.266071,0.285732
1412,-0.009245,-0.135973,0.221479
1413,0.081821,-0.123986,0.131436
1414,0.212951,-0.330786,-0.169176
1415,-0.053543,-0.287002,-0.028133
1416,-0.10097,-0.172503,0.037874
1417,-0.002863,-0.054417,0.074695
1418,0.122902,0.051378,-0.012748
1419,0.264951,0.103404,-0.088474
1420,0.408018,0.073018,-0.137609
1421,0.504307,0.129991,-0.156755
1422,0.846059,0.23861,-0.087375
1423,1.023592,0.311901,-0.259885
1424,0.721011,0.202464,-0.085979
1425,0.685743,0.171965,-0.164015
1426,0.716964,0.30802,-0.308673
1427,0.266324,0.428623,-0.471954
1428,-0.14997,0.581562,-0.344239
1429,-0.73501,1.023737,0.858497
1430,-0.418977,1.291908,0.037306
1431,-0.267196,0.941799,-0.361633
1432,-0.272543,0.497715,-0.138639
1433,-0.485529,0.415292,0.34897
1434,-0.658139,0.311066,0.467635
1435,-0.315265,-0.135814,0.436744
1436,-0.316365,-0.288012,0.376448
1437,-0.276438,-0.340371,0.432567
1438,-0.38219,-0.366548,0.529991
1439,-0.526808,-0.319802,0.585896
1440,-0.639804,-0.20836,0.662403
1441,-0.924439,-0.058189,0.822799
1442,-0.938818,-0.629192,0.818878
1443,-0.653218,-0.953835,0.431297
1444,-0.33862,-0.771886,-0.095297
1445,0.966529,0.91311,-1.315551
1446,2.491507,2.125351,-1.302182
1447,0.038345,0.562328,-0.444706
1448,-0.380069,-0.044883,-0.283068
1449,-1.291837,0.065112,0.817665
1450,-0.62589,0.86502,0.43714
1451,0.959662,1.007728,0.724417
1452,-0.679922,-0.343004,0.135229
1453,-0.617565,-0.302798,0.826151
1454,-0.487616,-0.053024,1.230111
1455,-0.266744,0.54452,0.574799
1456,-0.149056,0.599912,0.430516
1457,-0.184572,0.320897,0.372677
1458,-0.303164,0.053313,0.419675
1459,-0.3413,0.116035,0.380447
1460,-0.325771,0.077419,0.386177
1461,-0.172945,-0.15086,0.441623
1462,-0.029879,-0.301973,0.276321
1463,-0.043761,-0.297406,0.210244
1464,0.016115,-0.178202,-0.11243
1465,-0.110319,-0.096651,-0.167428
1466,-0.103418,-0.157601,-0.156061
1467,-0.010052,-0.095651,0.15854
1468,0.185751,-0.069499,0.0639
1469,0.251822,-0.041357,0.02014
1470,0.377993,0.156468,-0.108747
1471,0.327888,0.148246,-0.304463
1472,0.449627,0.29832,-0.091205
1473,0.849284,0.436051,-0.190454
1474,0.82583,0.345988,-0.188159
1475,0.700184,0.06706,-0.126486
1476,0.778246,0.0988,-0.236979
1477,0.637034,0.187817,-0.254968
1478,0.000872,0.465612,-0.182245
1479,-0.430527,0.798418,0.710273
1480,-0.48727,1.177875,0.596364
1481,-0.23743,1.18289,0.064792
1482,-0.154032,0.560525,-0.07501
1483,-0.220435,0.418453,0.232887
1484,-0.36973,0.377405,0.44129
1485,-0.250216,-0.054106,0.442326
1486,-0.128169,-0.246083,0.348927
1487,-0.328192,-0.344566,0.495753
1488,-0.358902,-0.336607,0.528591
1489,-0.424531,-0.301067,0.563857
1490,-0.609116,-0.298834,0.686628
1491,-0.733419,-0.314314,0.756343
1492,-0.78174,-0.398881,0.804623
1493,-0.813794,-0.644243,0.607515
1494,-0.753603,-0.591567,0.505529
1495,-0.186935,-0.160408,-0.044758
1496,1.819774,1.932051,-1.201426
1497,1.855052,1.9914,-1.266422
1498,0.101306,0.211817,-0.502617
1499,-0.582786,-0.407982,0.057636
1500,-0.611242,-0.227821,0.539113
1501,-0.450078,0.104553,1.541814
1502,0.633695,1.97472,-0.747956
1503,0.006282,1.344171,-0.404648
1504,-1.05428,-0.750432,0.461504
1505,-0.597171,-0.247272,1.36658
1506,-0.376945,0.034257,1.172739
1507,-0.00044,0.490771,0.654098
1508,0.315638,0.595518,0.167761
1509,0.127973,0.054403,0.160626
1510,-0.366006,0.024717,0.445289
1511,-0.34549,-0.148971,0.494033
1512,-0.248885,-0.238063,0.314355
1513,-0.051927,-0.186343,0.231381
1514,0.012659,-0.08534,0.149248
1515,0.0458,-0.165903,0.031707
1516,-0.072683,-0.18936,-0.025579
1517,-0.131957,-0.189359,0.116319
1518,-0.101808,-0.09387,0.196284
1519,0.020641,-0.01447,0.092547
1520,0.165849,0.0931,-0.023964
1521,0.278123,0.129187,-0.071295
1522,0.301759,0.072495,-0.178057
1523,0.565283,0.23556,-0.107335
1524,1.103664,0.270583,-0.078897
1525,0.999963,0.324092,-0.275952
1526,0.560414,0.139121,-0.097658
1527,0.706551,0.341809,-0.33996
1528,0.730876,0.169596,-0.212928
1529,0.165527,0.390778,-0.403588
1530,-0.406334,0.686547,0.278077
1531,-0.633154,1.155366,0.786536
1532,-0.139325,1.156252,-0.155339
1533,-0.169085,0.760793,-0.177332
1534,-0.30742,0.422994,0.092246
1535,-0.401272,0.38536,0.334691
1536,-0.541875,0.280793,0.471511
1537,-0.145885,-0.23689,0.425377
1538,-0.257534,-0.335618,0.359229
1539,-0.377667,-0.305059,0.447416
1540,-0.370443,-0.350829,0.569039
1541,-0.657973,-0.343083,0.67575
1542,-0.690574,-0.317163,0.711828
1543,-0.904014,-0.405274,0.734369
1544,-0.890777,-0.615469,0.713214
1545,-0.84599,-0.368273,0.538244
1546,-0.165262,-0.263462,0.061136
1547,0.612817,0.756202,-0.889316
1548,2.357259,1.949241,-1.298606
1549,0.399634,0.258592,-0.731131
1550,-0.456968,-0.312391,0.058592
1551,-0.685722,-0.515847,0.555272
1552,-0.873848,0.626029,0.880232
1553,0.361176,2.118654,-0.788908
1554,0.615468,0.260451,0.49496
1555,-0.956994,-0.474411,0.37793
1556,-0.704863,-0.302293,1.215494
1557,-0.438619,-0.046165,1.207581
1558,0.209053,0.702807,0.28197
1559,-0.246207,0.284689,0.302364
1560,-0.407502,0.152459,0.328277
1561,-0.393163,0.099643,0.492565
1562,-0.281852,-0.036997,0.430964
1563,-0.075672,-0.120377,0.385446
1564,0.040115,-0.167723,0.367709
1565,-0.019099,-0.091491,0.24485
1566,0.0356,-0.24766,0.07209
1567,0.073177,-0.321892,-0.024186
1568,-0.129342,-0.206801,-0.047677
1569,-0.008584,-0.14696,-0.057624
1570,0.082202,-0.008763,0.135713
1571,0.203315,0.070542,-0.013212
1572,0.184332,0.062365,-0.1106
1573,0.159964,0.136785,-0.169108
1574,0.48353,0.228817,-0.085432
1575,1.065337,0.224423,-0.018438
1576,1.03986,0.2862,-0.287748
1577,0.554708,-0.001453,-0.164182
1578,0.657589,-0.053139,-0.276733
1579,0.895194,0.040608,-0.321114
1580,0.236033,0.335043,-0.286938
1581,-0.106403,0.636126,-0.2148
1582,-0.842141,1.192794,0.881613
1583,-0.286056,1.2193,-0.10054
1584,-0.142642,1.046852,-0.20462
1585,-0.151387,0.426399,0.037675
1586,-0.306801,0.359879,0.345747
1587,-0.489722,0.379706,0.35365
1588,-0.214025,-0.147585,0.354367
1589,-0.221995,-0.238602,0.406067
1590,-0.272812,-0.283034,0.463722
1591,-0.442145,-0.29017,0.567205
1592,-0.537379,-0.321289,0.65341
1593,-0.71745,-0.316684,0.708433
1594,-0.795691,-0.336194,0.733595
1595,-0.882984,-0.577034,0.728018
1596,-0.887828,-0.70348,0.523175
1597,-0.454039,-0.444789,0.106884
1598,1.063103,1.242657,-1.07251
1599,2.594418,2.081207,-1.261538
1600,0.013287,0.118216,-0.504726
1601,-0.1847,-0.371078,-0.164625
1602,-0.877955,-0.44739,0.053204
1603,-0.772429,0.388309,1.552014
1604,-0.530176,0.892958,0.014628
1605,0.985244,1.978877,-0.082577
1606,-0.903754,-0.548993,0.425008
1607,-0.682786,-0.310613,1.079655
1608,-0.471218,0.066832,1.241377
1609,-0.074649,0.475395,0.48613
1610,0.074508,0.487416,0.209223
1611,-0.106739,0.207214,0.273732
1612,-0.269274,0.144883,0.439069
1613,-0.368782,-0.025159,0.498977
1614,-0.268477,-0.195932,0.429684
1615,-0.039916,-0.257654,0.304614
1616,0.014475,-0.120679,0.253702
1617,0.021374,-0.190166,0.091706
1618,0.024988,-0.332425,-0.076313
1619,-0.180337,-0.244812,-0.060866
1620,-0.060943,-0.146522,0.085922
1621,0.118834,0.019971,0.135468
1622,0.261651,0.039412,-0.15945
1623,0.236359,0.086915,-0.176333
1624,0.261349,0.142601,-0.14454
1625,0.555896,0.183278,-0.178977
1626,0.811311,0.199354,-0.106958
1627,1.098143,0.276758,-0.18803
1628,0.740188,0.192567,-0.113556
1629,0.675177,0.142277,-0.148235
1630,0.62578,0.24944,-0.270312
1631,-0.068466,0.59674,-0.404158
1632,-0.688916,0.820684,0.553827
1633,-0.575206,1.276715,0.581392
1634,-0.129691,0.96987,-0.169773
1635,-0.190885,0.573641,-0.136334
1636,-0.218255,0.373338,0.204916
1637,-0.433861,0.395875,0.396447
1638,-0.354236,0.084954,0.449833
1639,-0.064898,-0.239127,0.327161
1640,-0.227336,-0.246436,0.415958
1641,-0.332457,-0.251607,0.529399
1642,-0.566573,-0.271124,0.621088
1643,-0.646618,-0.293556,0.656531
1644,-0.816495,-0.435373,0.771556
1645,-0.849712,-0.674546,0.755274
1646,-0.794435,-0.705683,0.642724
1647,-0.449675,-0.47435,0.303192
1648,-0.129773,0.33299,-0.416191
1649,2.37961,2.089912,-1.365518
1650,2.312475,2.602321,-1.339239
1651,-0.208354,-0.42875,-0.244657
1652,-0.590462,-0.59317,-0.055025
1653,-0.812036,0.020358,2.144019
1654,-0.957559,0.781143,0.289363
1655,1.443969,2.461913,-0.301233
1656,0.588467,1.493524,0.248249
1657,-1.017388,-0.359544,0.883047
1658,-0.622323,-0.069687,1.376448
1659,-0.334013,0.165052,0.984999
1660,0.12327,0.447766,0.500812
1661,0.334213,0.460381,0.139667
1662,0.023529,0.119885,0.22977
1663,-0.303452,0.117256,0.386441
1664,-0.446415,-0.061233,0.434119
1665,-0.355018,-0.208954,0.38672
1666,-0.146169,-0.229803,0.325711
1667,0.023206,-0.051756,0.156824
1668,0.090443,-0.126391,0.002126
1669,0.091161,-0.238021,-0.096458
1670,-0.111586,-0.254445,0.090214
1671,-0.146756,-0.211848,0.096301
1672,0.044723,-0.065006,0.047286
1673,0.168648,-0.01284,-0.049754
1674,0.240683,0.012625,-0.049712
1675,0.313661,0.135284,-0.067096
1676,0.375971,0.157465,-0.096865
1677,0.614946,0.170875,-0.063123
1678,1.153298,0.257522,-0.205798
1679,0.826317,0.203963,-0.259574
1680,0.639159,-0.033039,-0.24555
1681,0.81433,0.218398,-0.317803
1682,0.314357,0.312418,-0.329661
1683,-0.3403,0.794627,0.016699
1684,-0.799814,1.063463,0.977715
1685,-0.371158,1.30413,0.003059
1686,-0.159326,0.873591,-0.232724
1687,-0.200633,0.435218,-0.003769
1688,-0.296026,0.393803,0.253224
1689,-0.42013,0.319867,0.378509
1690,-0.073316,-0.22968,0.364221
1691,-0.159477,-0.232593,0.388103
1692,-0.21926,-0.242168,0.377894
1693,-0.420271,-0.240954,0.633047
1694,-0.569119,-0.227457,0.653962
1695,-0.786307,-0.225418,0.693564
1696,-0.860826,-0.43279,0.695075
1697,-0.837681,-0.775518,0.649238
1698,-0.745729,-0.653221,0.435575
1699,-0.115131,-0.378228,0.069608
1700,0.689669,0.656386,-0.642972
1701,2.235035,2.251625,-1.559265
1702,0.341836,0.350218,-0.638519
1703,-0.222663,-0.303797,-0.034566
1704,-0.616742,-0.390209,0.820803
1705,-0.97953,0.213184,2.05313
1706,-0.978529,2.107207,-2.446522
1707,1.129143,1.615601,0.868569
1708,-1.144122,-1.060858,-0.006234
1709,-0.611556,-0.049456,1.51523
1710,-0.444634,0.180154,1.160167
1711,-0.071211,0.348894,0.636119
1712,0.088219,0.554753,0.408658
1713,0.167049,0.560522,0.263427
1714,-0.18625,0.115805,0.280958
1715,-0.344664,-0.165989,0.579295
1716,-0.358535,-0.290004,0.538468
1717,-0.311,-0.312399,0.419922
1718,-0.041321,-0.170709,0.124066
1719,0.032247,-0.178431,-0.014767
1720,0.05321,-0.191843,-0.119039
1721,-0.082078,-0.137588,0.162198
1722,-0.082285,-0.076758,0.129554
1723,-0.041887,-0.007262,0.081866
1724,0.21794,0.253811,-0.129792
1725,0.358783,0.307692,-0.199484
1726,0.491439,0.317603,-0.212135
1727,1.134706,0.366418,-0.188974
1728,1.024155,0.37595,-0.251593
1729,0.861977,0.359067,-0.215235
1730,0.731208,0.216245,-0.37793
1731,0.687639,0.179043,-0.306956
1732,0.231157,0.253904,-0.257824
1733,-0.282138,0.607897,0.151457
1734,-0.590904,1.004606,0.734569
1735,-0.120886,0.906585,-0.149085
1736,-0.09421,0.454949,-0.064828
1737,-0.175074,0.350843,0.103002
1738,-0.452901,0.331615,0.325881
1739,-0.335423,0.029737,0.48569
1740,-0.2664,-0.119973,0.459086
1741,-0.288021,-0.282254,0.407789
1742,-0.331195,-0.273072,0.499133
1743,-0.389346,-0.259094,0.570465
1744,-0.539118,-0.288237,0.608862
1745,-0.58283,-0.263757,0.651065
1746,-0.786365,-0.333923,0.69054
1747,-0.805088,-0.558028,0.620196
1748,-0.604335,-0.561588,0.37656
1749,-0.072959,-0.374904,0.023985
1750,0.588894,0.414045,-0.312315
1751,1.648008,1.91853,-1.186068
1752,0.220064,0.576323,-0.66142
1753,-0.305943,-0.223229,-0.078877
1754,-0.640366,-0.317843,0.387403
1755,-0.678619,0.588545,1.587142
1756,-0.518044,1.473448,-0.788463
1757,0.7061,1.480393,-0.05401
1758,-0.881776,-0.769825,0.690789
1759,-0.508136,-0.292321,1.166887
1760,-0.367861,0.071176,1.242132
1761,-0.23742,0.258036,0.96604
1762,0.013234,0.569647,0.249519
1763,-0.1956,0.175999,0.311781
1764,-0.290023,0.130278,0.404059
1765,-0.361114,0.082953,0.492603
1766,-0.350238,-0.183689,0.378518
1767,-0.224856,-0.239895,0.343278
1768,-0.065997,-0.243606,0.306923
1769,0.078571,-0.117944,0.157677
1770,0.111075,-0.194432,0.005141
1771,0.077812,-0.260402,-0.084804
1772,-0.136328,-0.156448,-0.019599
1773,-0.065379,-0.098263,0.065434
1774,0.022116,-0.030889,0.118386
1775,0.271487,0.051048,-0.123511
1776,0.315302,0.0079,-0.251959
1777,0.292152,0.043391,-0.297024
1778,1.013402,0.213041,-0.033135
1779,1.320861,0.24645,-0.132842
1780,1.261774,0.313487,-0.268733
1781,0.721681,0.28303,-0.287905
1782,0.854826,0.371246,-0.25967
1783,0.69127,0.213667,-0.186209
1784,-0.482754,0.694992,0.28692
1785,-0.706537,0.861545,0.88174
1786,-0.518721,1.317603,0.355327
1787,-0.101587,1.028281,-0.183469
1788,-0.213527,0.521636,-0.056655
1789,-0.174363,0.414178,0.307922
1790,-0.421658,0.367357,0.426476
1791,-0.285098,0.080873,0.470094
1792,-0.214419,-0.232188,0.411807
1793,-0.251574,-0.295878,0.43932
1794,-0.377725,-0.306012,0.586369
1795,-0.564783,-0.322551,0.655871
1796,-0.639497,-0.286504,0.742226
1797,-0.824347,-0.349232,0.779014
1798,-0.881778,-0.521863,0.77045
1799,-0.81951,-0.687657,0.619911
1800,-0.625869,-0.545395,0.321447
1801,-0.121673,0.003008,-0.359088
1802,1.899757,1.639079,-1.039167
1803,1.163171,1.733133,-1.083094
1804,-0.052439,-0.071923,-0.261213
1805,-0.634705,-0.633681,-0.072426
1806,-0.77592,-0.738738,0.211731
1807,-0.96619,1.369308,-1.077953
1808,0.528279,2.602639,-1.809332
1809,-0.917785,-0.714787,0.746674
1810,-0.844164,-0.379513,1.118214
1811,-0.59594,-0.057442,1.358619
1812,-0.379142,0.308687,0.903654
1813,-0.01192,0.668564,0.433817
1814,0.074832,0.479333,0.23658
1815,-0.045203,0.233217,0.32236
1816,-0.337519,0.107782,0.47438
1817,-0.360107,-0.055441,0.470644
1818,-0.230489,-0.186464,0.336218
1819,-0.139862,-0.258939,0.290637
1820,-0.062956,-0.233662,0.199049
1821,0.050589,-0.203895,-0.023962
1822,0.061217,-0.186044,-0.045574
1823,-0.013849,-0.185236,0.045604
1824,0.004218,-0.183148,0.139009
1825,0.08668,-0.118051,0.10693
1826,0.235695,-0.04763,0.027958
1827,0.294059,0.071719,-0.075358
1828,0.243595,0.18109,-0.099456
1829,0.251245,0.208907,-0.049716
1830,0.497387,0.244561,-0.030584
1831,1.147842,0.354502,-0.162821
1832,0.88558,0.226213,-0.051686
1833,0.810869,0.185231,-0.017995
1834,0.709178,0.367106,-0.300159
1835,0.231766,0.319,-0.387221
1836,-0.145075,0.445398,-0.241783
1837,-0.699212,1.033113,0.956584
1838,-0.518005,1.143794,0.262327
1839,-0.341818,1.043956,-0.18838
1840,-0.203221,0.51351,-0.040738
1841,-0.266653,0.398672,0.408637
1842,-0.354906,0.225022,0.58124
1843,-0.018702,-0.140662,0.377386
1844,-0.160976,-0.195097,0.431401
1845,-0.284574,-0.226916,0.532569
1846,-0.436325,-0.236464,0.611805
1847,-0.671618,-0.234515,0.690456
1848,-0.694989,-0.227689,0.741876
1849,-0.711594,-0.213957,0.799598
1850,-0.75949,-0.66871,0.664469
1851,-0.690004,-0.687258,0.534169
1852,-0.166036,-0.268591,0.01348
1853,0.699092,0.703631,-0.428958
1854,2.113491,2.208539,-1.318633
1855,0.322098,0.299527,-0.631602
1856,-0.291744,-0.36419,-0.028541
1857,-0.663756,-0.351608,0.754916
1858,-0.923182,0.396143,1.756111
1859,-0.93494,1.233245,-1.3076
1860,0.643936,1.948361,-1.417089
1861,-0.828682,-0.801036,0.615518
1862,-0.651339,-0.19618,0.959198
1863,-0.421791,0.239425,1.218736
1864,-0.133649,0.42218,0.745508
1865,0.072839,0.331584,0.410124
1866,0.097056,0.332627,0.338182
1867,-0.347757,0.174547,0.307178
1868,-0.453362,0.066375,0.458061
1869,-0.473805,-0.041321,0.474018
1870,-0.234761,-0.154587,0.34048
1871,0.037523,-0.14539,0.29642
1872,0.097069,-0.116275,0.245563
1873,0.175656,-0.176815,0.037799
1874,0.073439,-0.232105,-0.01332
1875,-0.07785,-0.149755,0.002546
1876,-0.061105,-0.136611,0.067557
1877,0.046522,-0.119329,0.051067
1878,0.177114,-0.03833,-0.009625
1879,0.205251,0.043832,-0.055828
1880,0.155955,0.083233,0.040986
1881,0.262139,0.174104,0.054465
1882,0.834214,0.323032,-0.080514
1883,1.068909,0.321278,-0.294982
1884,0.914483,0.293391,-0.314236
1885,0.568652,0.099146,-0.154799
1886,0.792087,0.130239,-0.303069
1887,0.771997,0.152392,-0.178025
1888,0.017161,0.333077,-0.155594
1889,-0.47683,0.85385,0.612887
1890,-0.721529,1.236436,0.65911
1891,-0.299211,1.18681,-0.111665
1892,-0.211332,0.690784,-0.068366
1893,-0.136837,0.403125,0.236974
1894,-0.299381,0.383893,0.430183
1895,-0.288839,0.172136,0.480708
1896,-0.238828,-0.077568,0.369893
1897,-0.216639,-0.142539,0.433951
1898,-0.335513,-0.162782,0.593092
1899,-0.496766,-0.165453,0.714849
1900,-0.639168,-0.193232,0.745333
1901,-0.765475,-0.383503,0.782574
1902,-0.816252,-0.517223,0.777185
1903,-0.865313,-0.701917,0.736876
1904,-0.319191,-0.524481,0.165862
1905,0.120321,0.146359,-0.566428
1906,2.641856,2.201928,-1.203001
1907,2.263226,2.481493,-1.206415
1908,-0.146164,-0.3615,-0.101936
1909,-0.669449,-0.802721,0.199147
1910,-0.39912,-1.092355,2.124735
1911,-1.281898,-0.630832,2.156244
1912,-1.092127,2.693918,-3.946669
1913,1.898615,2.597538,0.877168
1914,-0.836425,-0.151183,0.199248
1915,-0.765772,-0.121302,1.646847
1916,-0.654227,-0.32758,1.151827
1917,-0.414984,-0.384775,0.906027
1918,0.091476,1.009748,0.379857
1919,0.163253,0.605561,0.229208
1920,0.080959,0.300746,0.319664
1921,-0.328847,-0.233281,0.497299
1922,-0.452794,-0.283938,0.465154
1923,-0.446438,-0.288629,0.36934
1924,-0.14495,-0.255646,0.186353
1925,0.229826,-0.109403,0.014953
1926,0.31995,-0.08376,0.021815
1927,0.097827,-0.253013,0.021516
1928,-0.013932,-0.156305,0.120007
1929,0.092473,-0.077858,0.085925
1930,0.220451,-0.016845,-0.001235
1931,0.327719,0.155396,-0.101595
1932,0.342608,0.192141,-0.130657
1933,0.340569,0.18973,-0.014366
1934,0.818741,0.34199,-0.052499
1935,0.915115,0.386991,-0.274005
1936,0.834218,0.317125,-0.26754
1937,0.569226,-0.044883,-0.369107
1938,0.702065,-0.069311,-0.339616
1939,0.456244,0.087796,-0.21809
1940,-0.05515,0.47341,0.024498
1941,-0.328742,0.752273,0.486937
1942,-0.463567,1.438066,0.341105
1943,-0.125364,1.141785,-0.256383
1944,-0.233515,0.587011,0.000446
1945,-0.222278,0.464064,0.294893
1946,-0.485771,0.396837,0.404695
1947,-0.182677,0.008437,0.349558
1948,-0.117877,-0.196347,0.429568
1949,-0.235118,-0.244529,0.400576
1950,-0.31434,-0.234864,0.536552
1951,-0.552588,-0.218707,0.715113
1952,-0.74401,-0.310518,0.74278
1953,-0.791421,-0.391244,0.758068
1954,-0.883454,-0.691682,0.756743
1955,-0.715968,-0.715187,0.450713
1956,-0.444876,-0.552543,0.252986
1957,-0.149249,-0.400228,-0.00619
1958,2.520788,2.673408,-1.405377
1959,1.061664,1.513131,-1.059934
1960,-0.42031,-0.539022,0.035809
1961,-0.683181,-0.742284,0.943043
1962,-0.748119,-0.493967,2.165024
1963,-1.071627,1.872872,-2.458196
1964,1.011359,3.229913,-1.834333
1965,-0.107383,0.411598,1.549455
1966,-0.843599,-0.413479,1.371594
1967,-0.515587,-0.126377,1.409965
1968,-0.351285,-0.020166,1.093521
1969,0.347247,0.896904,0.367051
1970,0.260576,0.372401,0.145622
1971,-0.157209,0.058875,0.322253
1972,-0.403077,0.04956,0.508858
1973,-0.480229,-0.198224,0.459236
1974,-0.343607,-0.270517,0.339774
1975,-0.075437,-0.112707,0.319521
1976,0.074638,-0.070605,0.217463
1977,0.168411,-0.245151,0.083708
1978,0.012449,-0.393122,-0.080421
1979,-0.215599,-0.17391,0.018545
1980,-0.117802,-0.089675,0.142353
1981,0.081969,0.030872,0.077041
1982,0.219243,0.182104,-0.062149
1983,0.223794,0.192122,-0.06838
1984,0.279179,0.188304,-0.029985
1985,1.048404,0.336257,-0.031206
1986,1.430148,0.365072,-0.080485
1987,0.846839,0.289379,-0.319128
1988,0.491328,0.035547,-0.255467
1989,0.810598,0.196778,-0.355362
1990,0.260398,0.144741,-0.303394
1991,-0.521937,0.781438,0.603396
1992,-0.681324,0.993044,0.852828
1993,-0.329006,1.31359,-0.030781
1994,-0.16984,1.050629,-0.082631
1995,-0.163597,0.576962,0.040953
1996,-0.238241,0.403739,0.267898
1997,-0.537834,0.405603,0.379368
1998,-0.305916,0.027079,0.553982
1999,-0.264246,-0.254724,0.501641
2000,-0.311992,-0.305482,0.399782
2001,-0.446431,-0.278564,0.580275
2002,-0.487648,-0.267194,0.673048
2003,-0.762917,-0.322074,0.757973
2004,-0.843068,-0.463188,0.780565
2005,-0.78223,-0.72597,0.712722
2006,-0.673878,-0.684536,0.492393
2007,-0.041995,-0.363066,0.014137
2008,1.155909,0.977268,-0.947863
2009,2.148599,2.563865,-1.476044
2010,2.128348,2.575721,-1.47537
2011,-0.548948,-0.568327,0.089007
2012,-0.935311,-0.31835,1.57409
2013,-1.267125,0.139192,2.170456
2014,0.709145,2.322194,-1.770111
2015,0.398278,0.623732,1.391362
2016,-0.950701,-0.744125,0.403256
2017,-0.481833,-0.060263,1.618469
2018,-0.39159,0.187079,1.074213
2019,-0.241842,0.250276,0.787608
2020,-0.05804,0.61445,0.40553
2021,-0.108769,0.316369,0.352327
2022,-0.258533,0.199774,0.486093
2023,-0.405007,-0.021679,0.497139
2024,-0.373554,-0.165482,0.395671
2025,-0.237058,-0.143435,0.335476
2026,-0.125885,-0.183125,0.277887
2027,0.017079,-0.192678,0.174245
2028,0.101111,-0.199622,0.109027
2029,0.058968,-0.300408,-0.019051
2030,-0.064439,-0.117549,0.084536
2031,0.009196,-0.117613,0.128836
2032,0.113841,-0.117363,0.087723
2033,0.33039,0.118004,-0.096775
2034,0.339974,0.125242,-0.135814
2035,0.278436,0.114924,-0.093771
2036,1.03932,0.385891,-0.144819
2037,1.188473,0.399428,-0.222362
2038,1.077714,0.363291,-0.262941
2039,0.779164,0.302944,-0.352026
2040,0.794266,0.320204,-0.305482
2041,0.598843,0.152055,-0.24235
2042,-0.428413,0.733262,0.376562
2043,-0.676886,0.976424,0.94014
2044,-0.603377,1.36537,0.399382
2045,-0.24849,1.044538,-0.21036
2046,-0.311729,0.540896,-0.098163
2047,-0.222789,0.389037,0.31365
2048,-0.431228,0.266778,0.534451
2049,-0.093628,-0.077482,0.410513
2050,-0.194845,-0.322114,0.408097
2051,-0.217016,-0.298186,0.489095
2052,-0.387987,-0.278842,0.633137
2053,-0.64011,-0.225614,0.678611
2054,-0.740441,-0.269871,0.733694
2055,-0.821734,-0.374816,0.776773
2056,-0.821117,-0.633227,0.747796
2057,-0.832052,-0.655752,0.507844
2058,-0.246525,-0.326719,0.053072
2059,0.354379,0.701436,-0.880762
2060,2.766042,2.391131,-1.219413
2061,1.504118,1.931125,-1.102462
2062,-0.288808,-0.360633,-0.079579
2063,-0.869758,-0.357966,0.413864
2064,-0.933944,0.395517,2.017125
2065,-0.7702,1.284514,-0.97883
2066,1.057376,1.986479,0.344418
2067,-1.022386,-0.869595,0.348273
2068,-0.784818,-0.191165,1.177591
2069,-0.504512,0.163654,1.286892
2070,-0.095302,0.441613,0.757939
2071,0.232272,0.45518,0.412787
2072,0.219968,0.236276,0.313609
2073,0.063319,0.126842,0.338158
2074,-0.370984,0.026265,0.448348
2075,-0.403721,-0.109935,0.445561
2076,-0.333371,-0.144881,0.352847
2077,-0.030612,-0.130049,0.296754
2078,-0.034902,-0.132373,0.175573
2079,0.011503,-0.209838,0.028708
2080,0.001927,-0.256649,0.020151
2081,-0.210233,-0.167405,0.079514
2082,-0.194137,-0.153825,0.067828
2083,0.048335,-0.056837,0.110568
2084,0.22146,0.14907,0.030134
2085,0.27896,0.157758,-0.016359
2086,0.326268,0.143409,-0.104422
2087,0.965629,0.278033,-0.035838
2088,1.21355,0.319167,-0.094885
2089,1.156414,0.366903,-0.218255
2090,0.494577,0.001945,-0.187315
2091,0.697226,0.172389,-0.346851
2092,0.755987,0.308182,-0.327877
2093,-0.192746,0.557544,0.00293
2094,-0.590521,1.008533,0.927571
2095,-0.332512,1.303701,0.122278
2096,-0.177674,1.181502,-0.194219
2097,-0.2509,0.719459,-0.086993
2098,-0.215858,0.33673,0.312051
2099,-0.466024,0.31768,0.462435
2100,-0.396662,0.159924,0.46232
2101,-0.183005,-0.301533,0.39826
2102,-0.28525,-0.365055,0.460122
2103,-0.320791,-0.324936,0.556503
2104,-0.606728,-0.308809,0.621665
2105,-0.622333,-0.2748,0.711857
2106,-0.741213,-0.281595,0.726623
2107,-0.85124,-0.562473,0.750037
2108,-0.75231,-0.654015,0.594524
2109,-0.352911,-0.443407,0.274943
2110,0.079058,0.048187,-0.266592
2111,2.035596,1.586883,-1.087673
2112,1.181699,1.513043,-1.077865
2113,0.123532,-0.066915,-0.367555
2114,-0.639871,0.092281,0.18196
2115,-0.742856,0.549075,0.610797
2116,-0.579662,0.909096,0.41023
2117,-0.598464,0.274733,-0.075687
2118,-0.741249,-0.511108,0.480159
2119,-0.316328,-0.047207,1.551568
2120,-0.179702,0.729259,1.039172
2121,0.015,0.917482,0.516224
2122,0.035874,0.215535,0.472292
2123,-0.08247,0.134631,0.454818
2124,-0.332284,0.129643,0.455929
2125,-0.366094,0.061629,0.432615
2126,-0.20534,-0.045313,0.420292
2127,-0.062978,-0.183673,0.412357
2128,0.077256,-0.259457,0.260928
2129,0.089329,-0.191491,0.219894
2130,0.001745,-0.161628,0.08766
2131,-0.08392,-0.222941,-0.003375
2132,-0.178092,-0.133822,-0.017912
2133,-0.037938,-0.076227,0.139285
2134,0.051998,-0.030771,0.208097
2135,0.241763,0.032805,-0.113898
2136,0.17779,0.073332,-0.14356
2137,0.165783,0.186482,-0.114771
2138,1.259513,0.259758,-0.090382
2139,1.102434,0.326961,-0.363098
2140,0.508023,0.149558,-0.228283
2141,0.688286,0.027532,-0.266277
2142,0.827794,0.111441,-0.201378
2143,0.194016,0.467251,-0.252852
2144,-0.530052,0.813949,0.584838
2145,-0.785523,1.073616,0.959098
2146,-0.104568,1.324953,-0.139895
2147,-0.151846,0.695471,-0.011862
2148,-0.224483,0.522796,0.081322
2149,-0.420756,0.397716,0.450427
2150,-0.435762,0.289494,0.43761
2151,-0.290883,0.068466,0.491677
2152,-0.213425,-0.272832,0.37958
2153,-0.309971,-0.253789,0.566587
2154,-0.378778,-0.2258,0.655612
2155,-0.681123,-0.267888,0.756334
2156,-0.813191,-0.269948,0.796306
2157,-0.865048,-0.432209,0.817828
2158,-0.963196,-0.650499,0.75822
2159,-0.760261,-0.531816,0.469482
2160,-0.244495,-0.268343,-0.070011
2161,0.810349,0.92951,-1.081226
2162,2.396622,2.536281,-1.321407
2163,0.134332,0.1125,-0.3663
2164,-0.210206,-0.159296,-0.009772
2165,-0.939011,0.350844,0.572379
2166,-0.828331,0.671218,1.327089
2167,0.32267,1.059417,-0.516932
2168,-0.418775,-0.269984,0.49973
2169,-0.524407,-0.081336,0.913168
2170,-0.306831,0.19121,1.417203
2171,-0.155942,0.473274,0.852983
2172,0.005955,0.279531,0.446732
2173,-0.025776,0.328243,0.366911
2174,-0.219171,0.234498,0.396924
2175,-0.337168,0.150072,0.46857
2176,-0.357131,-0.0266,0.492046
2177,-0.240279,-0.112783,0.414412
2178,-0.058463,-0.192728,0.324761
2179,0.055105,-0.173311,0.249696
2180,0.055776,-0.14538,0.183473
2181,0.09571,-0.211126,0.063029
2182,0.010198,-0.236071,-0.084582
2183,-0.060121,-0.104961,0.11666
2184,0.002828,-0.087932,0.174483
2185,0.183569,0.012932,0.046975
2186,0.226371,0.104889,-0.080133
2187,0.218704,0.106084,-0.130371
2188,0.450377,0.228077,0.055138
2189,1.006374,0.316613,-0.084097
2190,1.017455,0.339663,-0.195128
2191,0.814908,0.338229,0.031605
2192,0.700021,0.284512,-0.253856
2193,0.663577,0.299648,-0.390125
2194,-0.004212,0.387606,-0.332353
2195,-0.393891,0.681193,0.305525
2196,-0.568933,0.869334,0.88637
2197,-0.199596,0.993072,-0.146798
2198,-0.238446,0.730016,-0.249337
2199,-0.177095,0.402802,0.18708
2200,-0.390579,0.355472,0.453686
2201,-0.334393,0.110579,0.501109
2202,-0.321842,-0.129375,0.448114
2203,-0.330029,-0.313163,0.48603
2204,-0.290966,-0.336606,0.58051
2205,-0.40085,-0.352377,0.614405
2206,-0.541226,-0.258207,0.652391
2207,-0.746152,-0.214434,0.726775
2208,-0.727727,-0.315179,0.767423
2209,-0.85945,-0.605203,0.676084
2210,-0.673557,-0.58191,0.400079
2211,-0.237394,-0.307778,0.072039
2212,0.385379,0.577881,-0.680442
2213,2.270512,2.2623,-1.218013
2214,0.308262,0.671448,-0.670421
2215,-0.189127,-0.472256,-0.154926
2216,-0.550399,-0.585865,0.486024
2217,-0.547543,-0.237161,1.707294
2218,-0.941277,1.480753,-1.721785
2219,1.199785,2.457388,0.126265
2220,-0.275983,0.180071,0.952532
2221,-0.666911,-0.282457,1.560441
2222,-0.482932,-0.048683,1.253461
2223,-0.205058,0.295727,0.809015
2224,-0.042336,0.42904,0.550495
2225,-0.013012,0.16602,0.266788
2226,-0.14624,0.1016,0.408963
2227,-0.258968,0.053896,0.452025
2228,-0.346122,-0.197488,0.352126
2229,-0.252415,-0.220059,0.317274
2230,-0.13158,-0.181085,0.306774
2231,0.050555,-0.168667,0.126527
2232,0.116481,-0.207758,-0.007344
2233,-0.053653,-0.178332,0.070275
2234,-0.071056,-0.096808,0.170716
2235,-0.015061,-0.063118,0.157501
2236,0.071243,-0.013923,0.049776
2237,0.142014,0.112376,-0.053321
2238,0.153184,0.142306,-0.079062
2239,0.410994,0.21098,0.058775
2240,1.061047,0.331606,-0.018954
2241,1.174508,0.374095,-0.144925
2242,0.576057,0.257963,-0.066644
2243,0.683355,0.324412,-0.2268
2244,0.739552,0.336948,-0.288956
2245,0.144604,0.210718,-0.389607
2246,-0.404452,0.625645,0.088461
2247,-0.626672,0.814645,0.670534
2248,-0.399229,1.032766,0.083951
2249,-0.280036,0.787016,-0.156648
2250,-0.247019,0.416684,0.035521
2251,-0.2548,0.322399,0.433799
2252,-0.474081,0.241799,0.470841
2253,-0.207946,-0.1009,0.454169
2254,-0.301515,-0.232084,0.453553
2255,-0.202275,-0.303734,0.477532
2256,-0.366524,-0.308227,0.564561
2257,-0.526392,-0.2528,0.630397
2258,-0.658559,-0.17489,0.671384
2259,-0.691221,-0.252971,0.720987
2260,-0.788371,-0.43585,0.650351
2261,-0.724164,-0.587222,0.420459
2262,-0.624981,-0.547476,0.258388
2263,0.19914,0.138833,-0.333748
2264,1.729439,1.468741,-0.834297
2265,1.911906,1.850769,-1.056233
2266,0.029668,-0.067471,-0.314422
2267,-0.71252,-0.335479,0.304956
2268,-0.704766,-0.030826,1.208891
2269,-0.673178,0.310113,1.94318
2270,0.841803,1.949685,-0.237077
2271,0.033891,0.46873,0.833125
2272,-0.795197,-0.600509,0.733758
2273,-0.533157,-0.023504,1.345113
2274,-0.443854,0.158463,1.089119
2275,-0.250846,0.306633,0.796379
2276,0.212022,0.369796,0.212276
2277,0.144854,0.144288,0.331196
2278,-0.158388,0.094315,0.470065
2279,-0.384246,-0.035954,0.456015
2280,-0.376021,-0.164794,0.368435
2281,-0.187766,-0.246799,0.342094
2282,-0.05743,-0.188673,0.305766
2283,-0.002796,-0.146305,0.084314
2284,-0.035313,-0.115593,0.002218
2285,-0.113341,-0.150496,0.174106
2286,-0.086706,-0.063912,0.244593
2287,-0.009792,-0.000854,0.142915
2288,0.0943,0.024127,0.067737
2289,0.201118,0.150715,0.046111
2290,0.26875,0.169652,-0.058642
2291,0.470935,0.223486,-0.095856
2292,0.667378,0.248159,-0.027103
2293,0.848533,0.361815,-0.221353
2294,0.552131,0.232061,-0.113145
2295,0.59336,0.288647,-0.200571
2296,0.719465,0.115043,-0.184051
2297,0.278844,0.151845,-0.298243
2298,-0.248701,0.531073,0.034078
2299,-0.576789,0.857176,0.900155
2300,-0.286543,1.162313,0.264615
2301,-0.140493,0.904325,-0.079396
2302,-0.262581,0.439724,0.062427
2303,-0.152998,0.308523,0.418171
2304,-0.509864,0.376445,0.454286
2305,-0.199006,0.012004,0.428029
2306,-0.177249,-0.200247,0.408499
2307,-0.169531,-0.206014,0.42158
2308,-0.359181,-0.267461,0.596618
2309,-0.529453,-0.247044,0.65573
2310,-0.553091,-0.196999,0.746164
2311,-0.6464,-0.175423,0.7505
2312,-0.790605,-0.506752,0.690136
2313,-0.731416,-0.579009,0.609927
2314,-0.633034,-0.558242,0.466781
2315,0.087646,0.313585,-0.293265
2316,0.717013,0.978692,-0.538767
2317,1.801764,1.893526,-1.154345
2318,0.264546,0.269192,-0.504767
2319,-0.265491,-0.298983,0.025683
2320,-0.541256,-0.467186,0.414529
2321,-0.47102,0.007747,1.992087
2322,-0.640478,0.795786,0.096592
2323,0.951479,2.401357,-0.993116
2324,-0.685763,-0.429585,0.92743
2325,-1.076652,-0.722087,0.309682
2326,-0.501904,-0.164349,1.423448
2327,-0.25518,0.110296,1.107519
2328,0.099225,0.518851,0.611295
2329,0.082654,0.287746,0.045216
2330,-0.309438,0.11637,0.431261
2331,-0.446927,0.057162,0.611363
2332,-0.471123,-0.153648,0.497265
2333,-0.245697,-0.267987,0.342153
2334,0.024346,-0.107248,0.396119
2335,0.133095,-0.024519,0.277744
2336,0.20748,-0.149148,0.009102
2337,0.121463,-0.170918,-0.050307
2338,-0.121556,-0.106799,0.204934
2339,-0.053874,-0.056113,0.231642
2340,0.003314,-0.034126,0.1964
2341,0.116996,-0.092694,0.028069
2342,0.139196,-0.11665,-0.078037
2343,0.175747,0.082331,0.041638
2344,0.510359,0.272608,0.136244
2345,1.054866,0.425827,-0.068736
2346,0.81557,0.361302,-0.305331
2347,0.533054,0.309066,-0.116042
2348,0.561343,0.289869,-0.219517
2349,0.721524,0.176268,-0.249758
2350,0.355452,-0.039864,-0.292998
2351,-0.30163,0.535437,0.288127
2352,-0.489641,0.703285,0.876414
2353,-0.64781,0.952816,1.015175
2354,-0.269947,1.027578,-0.112802
2355,-0.306673,0.788075,-0.077403
2356,-0.120915,0.348646,0.331319
2357,-0.426037,0.280574,0.486153
2358,-0.297657,0.030442,0.470304
2359,-0.249129,-0.064287,0.418116
2360,-0.244452,-0.23063,0.525543
2361,-0.287147,-0.244896,0.593084
2362,-0.37906,-0.228601,0.649045
2363,-0.617203,-0.177068,0.684382
2364,-0.675946,-0.189862,0.684596
2365,-0.69261,-0.260388,0.692014
2366,-0.648927,-0.551094,0.460091
2367,-0.54146,-0.440105,0.285539
2368,-0.129933,-0.134796,0.027587
2369,0.572549,0.711826,-0.539114
2370,1.804571,1.593669,-1.024548
2371,0.319389,0.316114,-0.555274
2372,-0.155273,-0.286283,-0.083405
