,userAcceleration.x,userAcceleration.y,userAcceleration.z
0,-0.207109,0.101597,-0.467513
1,-0.248112,0.319607,-0.471443
2,-0.071367,0.128544,-0.462896
3,-0.046008,0.136697,-0.445167
4,-0.018528,-0.249849,-0.154326
5,-0.002292,0.103225,-0.168748
6,-0.009157,0.105005,-0.14471
7,-0.194316,0.366612,-0.117749
8,-0.187482,0.252102,-0.085849
9,-0.177834,0.035549,-0.123987
10,-0.03017,-0.006514,-0.105666
11,0.140979,0.131741,-0.050566
12,0.105379,0.156442,-0.008932
13,-0.047835,0.133573,0.068896
14,-0.047384,0.108476,0.035354
15,0.032457,0.081809,0.056063
16,0.173062,0.031819,0.090983
17,0.236982,0.037765,0.06417
18,0.259745,0.017292,0.133646
19,0.186238,0.020366,0.085301
20,0.150726,-2.30E-05,-0.025082
21,0.213164,-0.021932,0.035227
22,0.522763,0.13674,0.011049
23,0.586573,0.128977,0.036847
24,0.648722,0.052735,0.053175
25,0.447153,-0.135847,-0.240668
26,0.068194,-0.145405,-0.303451
27,0.100656,-0.533793,-0.224142
28,-0.270818,-0.309715,-0.265185
29,-0.518771,-0.400306,-0.168838
30,-0.647674,-0.516694,-0.168863
31,-0.695329,-0.552052,-0.023869
32,-0.30379,-0.428152,0.096432
33,-0.009159,-0.226888,0.098007
34,0.205387,-0.100596,0.059823
35,0.222567,-0.001613,-0.001052
36,0.090321,0.157328,0.028314
37,0.134109,0.19017,-0.003994
38,-0.001395,0.236059,-0.098732
39,-0.111215,0.152775,-0.148055
40,-0.180313,0.128069,-0.278484
41,-0.216668,0.145,-0.292563
42,-0.301393,0.279794,-0.256427
43,-0.293401,0.412531,-0.215271
44,-0.263595,0.453951,-0.204908
45,-0.259008,0.433916,-0.231907
46,-0.178599,0.274077,-0.138204
47,-0.089768,0.18779,-0.02971
48,-0.011743,0.169114,0.017762
49,0.145516,0.221037,0.197585
50,0.140734,0.113722,0.181299
51,0.190602,-0.343194,0.088461
52,0.244607,-0.892817,0.253109
53,0.085469,-0.449607,0.516105
54,-0.013494,0.127094,0.539712
55,-0.039599,0.235073,0.434902
56,0.101897,-0.628869,-0.170974
57,-0.102014,-0.685152,-0.261656
58,-0.200227,-0.454432,-0.086279
59,-0.19387,0.330011,-0.366705
60,-0.252339,0.317858,-0.378496
61,-0.187835,0.023531,-0.532689
62,-0.193937,0.117277,-0.526941
63,-0.106643,0.062472,-0.486724
64,-0.017213,-0.090011,-0.360642
65,-0.13999,0.021491,-0.166968
66,-0.131885,0.110129,-0.20718
67,-0.262811,0.26756,-0.223343
68,-0.248041,0.264782,-0.138928
69,-0.202124,0.178204,-0.050866
70,0.041447,-0.012077,-0.113657
71,0.047332,-0.010574,-0.089017
72,0.180104,0.143715,0.01967
73,0.147449,0.212415,0.080562
74,0.160276,0.136121,0.105426
75,0.182769,0.108497,0.091878
76,0.166671,0.140854,0.135014
77,0.154884,0.16746,0.11593
78,0.155192,0.123492,0.111947
79,0.062556,0.121216,0.020839
80,0.102158,0.016096,-0.028167
81,0.059938,-0.073784,-0.007156
82,0.154236,-0.078522,-0.007048
83,0.29833,-0.052074,-0.0166
84,0.438989,-0.016707,0.023816
85,0.432678,-0.076078,-0.079893
86,0.400751,-0.288649,-0.020735
87,0.069206,-0.327379,-0.129552
88,0.19782,-0.243111,-0.194097
89,-0.17605,-0.153982,-0.085124
90,-0.288678,-0.172356,-0.127437
91,-0.393991,-0.436966,0.02891
92,-0.444215,-0.753428,0.084989
93,-0.47862,-0.757677,0.056107
94,0.127288,-0.210588,0.02697
95,0.24316,-0.075734,0.034192
96,0.226295,-0.025285,0.004449
97,0.121068,0.113987,-0.049174
98,-0.056209,0.230281,-0.045968
99,-0.114314,0.238535,-0.087602
100,-0.264245,0.260875,-0.17417
101,-0.172079,0.111663,-0.301108
102,-0.251812,0.146462,-0.343966
103,-0.255408,0.265578,-0.294205
104,-0.283614,0.386138,-0.254893
105,-0.294021,0.46737,-0.248976
106,-0.193063,0.392518,-0.24981
107,-0.117315,0.366587,-0.167206
108,-0.020068,0.328657,-0.01241
109,0.091986,0.220668,0.190313
110,0.052544,-0.173641,0.193096
111,0.230578,-0.30883,0.078067
112,0.327173,-0.98515,0.227434
113,0.104886,-0.919199,0.509721
114,0.026958,-0.314921,0.573877
115,-0.172228,0.511431,0.434541
116,0.368132,-0.326978,-0.133245
117,-0.038529,-0.724644,-0.234355
118,-0.194243,-0.591137,-0.187958
119,-0.301997,0.454018,-0.32496
120,-0.25194,0.274551,-0.444019
121,-0.238775,0.01283,-0.633699
122,-0.202581,0.039939,-0.58714
123,-0.010718,-0.059397,-0.413517
124,-0.098773,-0.192226,-0.241899
125,-0.158555,-0.121356,-0.155785
126,-0.175541,0.153866,-0.201389
127,-0.239818,0.400488,-0.305167
128,-0.229754,0.309755,-0.126658
129,-0.089257,0.018014,-0.151745
130,0.102909,-0.037699,-0.194974
131,0.183888,0.11759,-0.066252
132,0.144614,0.205433,0.033715
133,0.115128,0.138478,0.030104
134,0.116981,0.082718,0.034625
135,0.208493,0.11394,0.079695
136,0.231343,0.180454,0.044867
137,0.202891,0.165342,0.063206
138,0.149288,0.131419,0.100059
139,0.059703,0.004741,0.064148
140,0.053093,-0.15699,-0.004787
141,0.108876,-0.175521,-0.035608
142,0.284169,0.022193,-0.013208
143,0.53293,0.078194,0.022465
144,0.593511,0.018024,0.028287
145,0.585133,-0.196736,0.044156
146,0.412154,-0.165338,-0.294847
147,0.03637,-0.405338,-0.233648
148,-0.179442,-0.234354,-0.219697
149,-0.410573,-0.253008,-0.170777
150,-0.499283,-0.292551,-0.158565
151,-0.565405,-0.338066,-0.052659
152,-0.350249,-0.54094,0.130377
153,-0.126537,-0.466484,0.118262
154,0.177707,-0.187932,0.048008
155,0.311681,-0.07947,0.04289
156,0.265722,-0.05839,0.019434
157,0.161208,0.109161,0.000584
158,0.087209,0.246307,-0.081971
159,-0.008281,0.252489,-0.090624
160,-0.176923,0.19065,-0.16567
161,-0.231322,0.159209,-0.359848
162,-0.285238,0.218479,-0.358087
163,-0.227598,0.326257,-0.31612
164,-0.27283,0.489247,-0.242111
165,-0.264279,0.497649,-0.273036
166,-0.212191,0.411773,-0.219927
167,-0.168637,0.385528,-0.164339
168,0.017206,0.282174,0.037461
169,0.081268,0.072897,0.172857
170,0.131288,-0.026744,0.214665
171,0.367351,-0.164083,0.17212
172,0.290138,-1.009443,0.273045
173,0.198518,-0.883331,0.422422
174,-0.026146,-0.417174,0.566183
175,0.121085,-0.565582,-0.079699
176,-0.129832,-0.770528,-0.185137
177,0.019195,-0.874648,-0.317974
178,-0.188112,0.0526,-0.177657
179,-0.291506,0.446333,-0.376253
180,-0.341034,0.340004,-0.292279
181,-0.314725,0.337584,-0.570332
182,-0.216117,0.180561,-0.5345
183,-0.036474,-0.006051,-0.499105
184,0.036352,-0.539467,-0.220384
185,-0.037047,-0.003579,-0.059416
186,-0.016582,0.216598,-0.090474
187,-0.107567,0.382337,-0.159717
188,-0.119799,0.345252,-0.065786
189,-0.095276,0.318733,-0.050601
190,0.141836,0.133419,-0.084785
191,0.239012,0.096256,-0.049576
192,0.224346,0.11327,-0.056785
193,0.036181,0.140316,0.028818
194,0.078669,0.152794,0.132302
195,0.199951,0.237269,0.065378
196,0.238001,0.198764,0.084016
197,0.126771,0.022384,0.11206
198,0.169684,-0.032687,0.08422
199,0.265703,-0.069992,-0.062844
200,0.252784,-0.05505,-0.02964
201,0.356666,-0.026142,-0.031202
202,0.528814,0.030623,-0.037495
203,0.538468,-0.054517,-0.002537
204,0.54035,-0.139605,0.008454
205,0.218646,-0.138932,-0.384855
206,-0.064907,-0.410974,-0.198726
207,-0.155331,-0.479033,-0.173683
208,-0.443482,-0.508273,-0.265023
209,-0.616421,-0.637613,-0.011744
210,-0.532588,-0.619715,0.099594
211,-0.00326,-0.277269,0.023678
212,0.076164,-0.218973,0.056568
213,0.151894,-0.149342,0.087501
214,0.023626,0.091209,-0.00589
215,0.112524,0.165161,-0.058032
216,0.136737,0.127009,-0.13381
217,-0.075353,0.066634,-0.110615
218,-0.10463,0.056165,-0.182109
219,-0.153959,0.08367,-0.274749
220,-0.34485,0.40452,-0.336475
221,-0.372552,0.501748,-0.306187
222,-0.359931,0.517927,-0.289975
223,-0.314315,0.522153,-0.253498
224,-0.21648,0.460113,-0.19194
225,-0.13708,0.424725,-0.146461
226,0.099597,0.273891,0.0732
227,0.121864,0.122854,0.245599
228,0.079426,0.035209,0.292392
229,0.215058,-0.819848,0.26185
230,0.158463,-1.134537,0.323457
231,0.186855,-1.013648,0.351995
232,0.082801,0.565333,0.329818
233,0.437018,-0.196533,-0.237053
234,0.030884,-0.974785,-0.398574
235,-0.304591,-0.543907,-0.459505
236,-0.452423,0.137088,-0.212317
237,-0.344958,0.331156,-0.349802
238,-0.195325,-0.184004,-0.502018
239,-0.051366,0.155058,-0.521345
240,-0.014862,0.181764,-0.445155
241,-0.043617,0.00484,-0.358502
242,-0.349684,-0.135248,-0.143081
243,-0.292742,-0.065283,-0.16896
244,-0.193083,0.17091,-0.233069
245,-0.032872,0.28011,-0.207127
246,-0.03621,0.236118,-0.097708
247,-0.034838,0.099014,-0.047022
248,0.014434,0.007684,-0.136311
249,0.050618,0.05724,-0.065788
250,0.115582,0.186258,0.048018
251,0.160913,0.174686,0.109492
252,0.174463,0.199747,0.098898
253,0.216323,0.201498,0.136178
254,0.140567,0.109735,0.137353
255,0.112133,0.06442,0.114523
256,0.247277,0.018606,0.01236
257,0.303982,0.026184,0.058413
258,0.26306,-0.008157,0.087654
259,0.414855,0.09404,0.034638
260,0.480591,-0.010903,0.012073
261,0.602283,-0.10558,-0.003045
262,0.266197,-0.261517,-0.220538
263,0.060438,-0.278371,-0.260294
264,-0.092497,-0.295522,-0.188246
265,-0.494523,-0.664075,-0.231554
266,-0.582335,-0.840207,-0.07387
267,-0.36865,-0.737348,0.048378
268,-0.060581,-0.316981,0.008856
269,0.033164,-0.194736,-0.006903
270,0.116624,-0.149755,0.056761
271,0.158093,-0.01396,0.00989
272,-0.024053,0.107467,-0.105651
273,-0.095957,0.238274,-0.141133
274,-0.112696,0.285641,-0.122782
275,0.020508,0.20036,-0.274001
276,-0.15805,0.316179,-0.396497
277,-0.312498,0.480783,-0.395831
278,-0.329347,0.477709,-0.367436
279,-0.337588,0.479705,-0.303349
280,-0.345778,0.501263,-0.207203
281,-0.259997,0.465432,-0.145303
282,-0.020086,0.387291,-0.082453
283,0.107408,0.286842,0.092476
284,0.176561,-0.224159,0.359298
285,0.274935,-0.463287,0.306341
286,0.216224,-1.072328,0.314433
287,0.146589,-1.071888,0.306855
288,0.187013,0.07862,0.482062
289,0.002941,0.41447,0.21489
290,-0.013036,-0.908758,-0.469887
291,-0.228875,-0.865204,-0.559903
292,-0.419551,-0.177685,-0.269445
293,-0.252571,0.404238,-0.320345
294,-0.230075,0.238812,-0.40257
295,-0.115501,-0.105878,-0.509143
296,0.039329,0.154176,-0.440343
297,0.059764,0.147475,-0.384971
298,-0.207316,-0.141982,-0.205179
299,-0.256492,-0.154052,-0.129858
300,-0.19915,0.00899,-0.210709
301,-0.021885,0.253457,-0.253164
302,-0.046418,0.25768,-0.146752
303,-0.06489,0.211162,-0.075196
304,-0.003044,0.06207,-0.087558
305,0.009639,0.051582,-0.102451
306,-0.01964,0.165149,-0.061889
307,0.097671,0.115929,0.05295
308,0.178751,0.124773,0.029601
309,0.222255,0.14246,0.022517
310,0.152979,0.126868,0.131161
311,0.165279,0.015813,0.181284
312,0.199724,0.012901,0.103713
313,0.305109,0.049069,0.054517
314,0.339192,0.079432,-0.004246
315,0.434317,0.170394,-0.020336
316,0.405233,0.033631,0.022865
317,0.542432,-0.118241,-0.098302
318,0.13153,-0.192086,-0.216254
319,0.114945,-0.364071,-0.239939
320,-0.106633,-0.358645,-0.236682
321,-0.414137,-0.615892,-0.305372
322,-0.541386,-0.885707,-0.145249
323,-0.427274,-0.969174,0.072871
324,-0.077266,-0.462529,0.102111
325,0.090918,-0.206019,-0.003697
326,0.200642,-0.074178,0.039864
327,0.277426,0.071354,-0.023476
328,0.158044,0.141395,-0.120116
329,0.011294,0.28578,-0.219205
330,-0.000379,0.309602,-0.231839
331,-0.228971,0.363054,-0.312256
332,-0.29514,0.387411,-0.381643
333,-0.282349,0.301865,-0.38689
334,-0.284353,0.242419,-0.332856
335,-0.29302,0.292757,-0.257952
336,-0.288917,0.345839,-0.243136
337,-0.212661,0.450806,-0.208113
338,-0.028475,0.394428,-0.033373
339,0.049263,0.314747,0.080058
340,0.10389,0.071969,0.306573
341,0.300405,-0.415538,0.163673
342,0.381948,-0.676956,0.167672
343,0.18386,-0.897635,0.345731
344,0.135492,-0.598786,0.359461
345,-0.229084,0.188591,0.485488
346,-0.025539,-0.831508,-0.445798
347,-0.244013,-0.765629,-0.444543
348,-0.270528,-0.257149,-0.188263
349,-0.276821,0.442766,-0.372331
350,-0.163663,0.065291,-0.53321
351,-0.136678,-0.09239,-0.615116
352,0.019089,0.081085,-0.469217
353,0.050139,0.084802,-0.401742
354,-0.044132,-0.064151,-0.279503
355,-0.178908,0.018706,-0.07352
356,-0.189093,0.089862,-0.115385
357,-0.103898,0.280271,-0.248704
358,-0.081471,0.258846,-0.199262
359,-0.040857,0.124911,-0.102351
360,0.000677,0.054309,-0.073141
361,0.010836,0.114678,-0.059926
362,0.031249,0.220351,-0.033358
363,0.084811,0.17371,0.060522
364,0.152691,0.153842,0.094726
365,0.232855,0.159292,0.05117
366,0.264171,0.191084,0.120867
367,0.280307,0.06843,0.230057
368,0.240069,0.025836,0.034405
369,0.254294,-0.010572,-0.014807
370,0.293043,-0.016522,0.002486
371,0.382348,0.047717,-0.028063
372,0.404707,0.024349,0.021895
373,0.585939,-0.176245,-0.079499
374,0.08202,-0.304435,-0.279896
375,0.033014,-0.451777,-0.260815
376,-0.226564,-0.56071,-0.12694
377,-0.437351,-0.59584,-0.101248
378,-0.499309,-0.736041,-0.089461
379,-0.39067,-0.88952,0.087984
380,-0.011282,-0.360107,0.000366
381,0.08495,-0.148354,-0.052507
382,0.194729,-0.10353,0.036192
383,0.167606,0.026387,-0.019873
384,-0.032631,0.153982,-0.129069
385,-0.032107,0.208958,-0.189159
386,-0.036405,0.214247,-0.224908
387,-0.125753,0.205793,-0.307349
388,-0.192608,0.277242,-0.400023
389,-0.27942,0.368183,-0.433893
390,-0.411926,0.510736,-0.409608
391,-0.325832,0.564454,-0.386704
392,-0.268489,0.511359,-0.28083
393,-0.240887,0.497248,-0.218315
394,-0.0676,0.432739,-0.058963
395,0.027823,0.112885,0.212623
396,0.021424,-0.035893,0.281742
397,0.26007,-1.008579,0.264778
398,0.223745,-1.153474,0.307591
399,0.170287,-0.999568,0.327904
400,0.085362,0.791131,0.560745
401,0.187795,0.235732,-0.19118
402,0.443286,-0.52074,-0.390198
403,-0.357244,-1.120922,-0.63069
404,-0.512763,-0.043677,-0.094879
405,-0.4342,0.370709,-0.256136
406,-0.09336,0.108879,-0.437119
407,0.116936,-0.109326,-0.578351
408,0.257731,0.115047,-0.445019
409,0.037073,-0.039009,-0.378245
410,-0.105981,-0.074358,-0.257431
411,-0.226357,-0.110604,-0.142413
412,-0.218436,0.12957,-0.242966
413,-0.162873,0.385503,-0.177131
414,-0.139823,0.393763,-0.141058
415,-0.171409,0.151517,-0.12203
416,-0.119867,0.059597,-0.159362
417,-0.062744,0.045106,-0.127578
418,0.017906,0.166439,-0.007145
419,0.065279,0.141983,0.094956
420,0.097711,0.086644,0.125162
421,0.299777,0.162059,0.136208
422,0.311979,0.049504,0.135744
423,0.254995,0.043477,0.065828
424,0.179073,0.08966,-0.022224
425,0.221865,0.044444,-0.039585
426,0.365586,0.122158,-0.111186
427,0.435998,0.052922,0.049091
428,0.441186,-0.127083,-0.125094
429,0.35814,-0.362758,-0.151684
430,0.099424,-0.334259,-0.271352
431,-0.032508,-0.449052,-0.103739
432,-0.384077,-0.519034,-0.26587
433,-0.391116,-0.681764,-0.235251
434,-0.326594,-0.954258,0.056996
435,-0.276258,-0.855641,0.113946
436,-0.092788,-0.277606,-0.042513
437,0.042826,-0.155363,-0.005628
438,0.181058,0.064385,-0.040658
439,0.084525,0.194897,-0.144778
440,-0.085279,0.275458,-0.183759
441,-0.141994,0.289523,-0.199111
442,-0.313644,0.355738,-0.31482
443,-0.324916,0.350192,-0.362446
444,-0.251246,0.41288,-0.365588
445,-0.248636,0.407222,-0.33113
446,-0.238736,0.42182,-0.311469
447,-0.175979,0.403372,-0.206341
448,-0.122566,0.434253,-0.086468
449,0.089966,0.416373,0.057658
450,0.228867,0.235185,0.20972
451,0.238125,-0.078508,0.141087
452,0.311737,-0.896829,0.190752
453,0.102953,-1.37921,0.297119
454,0.193386,-0.661857,0.375453
455,-0.107411,0.433714,0.465868
456,0.122133,-0.06158,-0.179643
457,-0.386304,-0.756436,-0.323196
458,-0.397632,-0.054866,-0.119692
459,-0.258077,0.271872,-0.268889
460,-0.059862,0.304652,-0.377105
461,-0.000237,-0.222571,-0.595561
462,0.100937,-0.254003,-0.620528
463,0.066115,-0.095089,-0.314722
464,-0.267608,0.066453,-0.252194
465,-0.25999,0.074068,-0.225584
466,-0.290147,0.100496,-0.218231
467,-0.175696,0.276172,-0.245897
468,-0.123462,0.322021,-0.242048
469,-0.07509,0.261961,-0.126164
470,0.053325,0.100434,-0.120638
471,0.111676,0.072745,-0.150009
472,-0.040407,0.258098,-0.017552
473,-0.035954,0.244882,0.012581
474,0.100806,0.134944,0.064764
475,0.1881,0.173753,0.093469
476,0.219191,0.151429,0.150331
477,0.250538,-0.06953,0.154921
478,0.156879,-0.099073,-0.041634
479,0.20287,0.01422,-0.021352
480,0.362562,0.065253,-0.027547
481,0.58313,0.157251,-0.068234
482,0.602831,-0.11445,-0.15336
483,0.702391,-0.142007,-0.121365
484,0.104233,-0.286595,-0.255822
485,0.071496,-0.547928,-0.212145
486,-0.34377,-0.530006,-0.372815
487,-0.381884,-0.728998,-0.255922
488,-0.438426,-0.876323,-0.152106
489,-0.249463,-0.489902,0.071817
490,-0.106883,-0.251855,-0.042526
491,-0.064948,-0.22613,-0.062653
492,0.195847,-0.006368,-0.012007
493,0.167639,0.152532,-0.097676
494,0.06799,0.168841,-0.135499
495,-0.05511,0.241416,-0.154651
496,-0.100441,0.262651,-0.219606
497,-0.134446,0.26125,-0.267609
498,-0.244782,0.399728,-0.402005
499,-0.29112,0.510567,-0.392862
500,-0.294532,0.534187,-0.373269
501,-0.295355,0.529213,-0.353944
502,-0.262722,0.447426,-0.199992
503,-0.186529,0.434444,-0.146192
504,-0.110807,0.416359,-0.092708
505,-0.026785,0.146479,0.099468
506,-0.052065,-0.118305,0.2877
507,0.035903,-0.36326,0.137598
508,0.34491,-1.407735,0.177621
509,0.345609,-0.702781,0.419781
510,-0.081866,0.463685,0.463903
511,0.00473,-0.98334,-0.255503
512,-0.184119,-1.192177,-0.448009
513,-0.262235,-0.838415,-0.185123
514,-0.179597,0.580826,-0.41225
515,-0.322957,0.895936,-0.381043
516,-0.281651,0.429715,-0.44848
517,-0.179947,0.072252,-0.633795
518,0.154349,-0.594113,-0.548238
519,0.157662,-0.784294,-0.29165
520,-0.173854,-0.143571,-0.081078
521,-0.128101,0.149044,-0.117073
522,-0.214533,0.351812,-0.257129
523,-0.090617,0.470895,-0.339514
524,0.015681,0.242822,-0.091549
525,0.044159,0.155109,-0.033776
526,0.074571,0.061465,-0.102077
527,6.00E-05,0.264234,-0.032452
528,-0.031959,0.321279,0.044531
529,0.002827,0.240023,0.082704
530,0.146084,0.197096,0.077654
531,0.220146,0.178993,0.12746
532,0.272544,-0.013372,0.059132
533,0.265992,-0.05574,0.021012
534,0.315771,-0.050914,0.053627
535,0.511087,0.107686,-0.024973
536,0.562879,0.098271,-0.026374
537,0.29872,-0.137272,0.063198
538,0.299633,-0.142848,-0.284666
539,0.355537,-0.168999,-0.214618
540,0.136397,-0.135861,-0.271434
541,-0.263056,-0.768864,-0.347811
542,-0.877231,-1.240915,-0.190679
543,-0.940081,-1.182885,-0.203322
544,-0.26593,-0.400582,-0.020189
545,-0.122319,-0.276336,-0.049293
546,-0.089779,-0.286924,-0.060988
547,0.150573,-0.052072,0.019755
548,0.234227,0.181068,-0.034105
549,0.136637,0.19817,-0.097322
550,-0.014489,0.192617,-0.135766
551,-0.064303,0.17254,-0.168014
552,-0.162924,0.184721,-0.278833
553,-0.227194,0.405024,-0.369576
554,-0.23122,0.664153,-0.351227
555,-0.229231,0.662136,-0.359481
556,-0.248675,0.658632,-0.3275
557,-0.22041,0.598183,-0.230567
558,-0.146259,0.558323,-0.139496
559,-0.0158,0.46585,0.038905
560,-0.00811,0.303666,0.106086
561,0.018515,-0.179825,-0.064709
562,0.316097,-1.467462,0.168042
563,0.230474,-1.746955,0.29933
564,0.109148,-0.189695,0.459235
565,-0.059263,0.858732,0.538615
566,0.367853,-0.97436,-0.458047
567,-0.088053,-1.066856,-0.327319
568,-0.26861,-0.768481,-0.280973
569,-0.500439,0.43689,-0.291226
570,-0.352746,0.339914,-0.337148
571,-0.142001,-0.143886,-0.528619
572,0.166555,0.065336,-0.493713
573,0.158378,0.069614,-0.39177
574,0.051297,-0.11848,-0.32799
575,-0.257533,-0.06936,-0.158741
576,-0.257773,0.0758,-0.169517
577,-0.103892,0.397533,-0.279678
578,-0.107216,0.429843,-0.226325
579,-0.113801,0.376047,-0.092782
580,-0.017534,0.041353,-0.13238
581,0.07553,-0.022285,-0.129668
582,0.154284,0.113782,-0.044256
583,0.152757,0.201453,0.104285
584,0.17254,0.17203,0.101858
585,0.209364,0.126633,0.095191
586,0.288812,0.051995,0.07937
587,0.258461,0.021261,0.078555
588,0.155665,0.097689,-0.086383
589,0.201932,0.057017,-0.042249
590,0.243578,0.006447,-0.026354
591,0.371756,0.009581,-0.020485
592,0.431228,0.030546,0.055582
593,0.598227,0.004811,-0.154983
594,0.385344,-0.07882,-0.238809
595,0.163074,-0.233336,-0.363245
596,-0.065782,-0.517774,-0.30416
597,-0.604528,-0.821752,-0.274927
598,-0.723856,-0.838857,-0.199688
599,-0.368977,-0.718882,0.047723
600,-0.262269,-0.597457,0.032597
601,-0.070193,-0.434317,-0.020318
602,0.127741,-0.177644,-0.002663
603,0.220199,0.096828,-0.030719
604,0.156339,0.210815,-0.124449
605,0.067504,0.29199,-0.161109
606,-0.072148,0.275996,-0.185946
607,-0.195437,0.288183,-0.314449
608,-0.324604,0.386403,-0.409178
609,-0.435357,0.553887,-0.367044
610,-0.375942,0.596484,-0.378634
611,-0.23891,0.459229,-0.316161
612,-0.18599,0.392331,-0.260415
613,-0.20574,0.423551,-0.180657
614,0.074025,0.343859,0.047352
615,0.194158,0.273015,0.15309
616,0.176932,0.114878,0.19804
617,0.381935,-0.984165,0.266301
618,0.375432,-1.457532,0.345772
619,0.27792,-0.540594,0.370722
620,-0.048466,0.686607,0.571702
621,-0.047758,0.075795,-0.231435
622,-0.428288,-0.668842,-0.425716
623,-0.415023,-0.191197,-0.045679
624,-0.216701,0.581707,-0.42762
625,-0.195563,0.658998,-0.361018
626,-0.200268,0.340616,-0.396235
627,-0.004892,-0.230133,-0.596528
628,0.226835,-0.178024,-0.483882
629,0.057131,-0.247207,-0.367566
630,-0.254602,-0.012266,-0.115187
631,-0.145344,0.183302,-0.090763
632,-0.060681,0.338014,-0.29773
633,-0.039566,0.43885,-0.316454
634,-0.010524,0.33183,-0.197921
635,-0.095707,0.119209,-0.120411
636,-0.166439,0.079299,-0.139676
637,-0.124853,0.199132,-0.119275
638,-0.011226,0.212377,0.05775
639,0.062876,0.118315,0.099408
640,0.158641,0.082156,0.001717
641,0.271812,0.123461,-0.01103
642,0.276354,0.075554,0.071784
643,0.247126,0.00527,-0.001506
644,0.355323,0.019666,-0.101225
645,0.43915,0.058778,-0.104861
646,0.491632,0.081371,-0.035343
647,0.269861,-0.071548,-0.187113
648,0.413201,-0.093535,-0.152249
649,0.13077,-0.201724,-0.227705
650,0.187593,-0.238487,-0.461045
651,-0.096176,-0.575325,-0.285575
652,-0.624913,-0.970999,-0.283162
653,-0.807126,-0.989296,-0.124354
654,-0.490048,-0.74808,0.026629
655,-0.04473,-0.377599,-0.011428
656,0.112679,-0.216526,0.008819
657,0.152144,-0.089685,-0.020919
658,0.092569,0.23202,-0.140942
659,-0.032047,0.296222,-0.191106
660,-0.102383,0.294217,-0.214357
661,-0.188627,0.260536,-0.235187
662,-0.249849,0.300222,-0.337791
663,-0.289602,0.487242,-0.383163
664,-0.283197,0.602385,-0.361501
665,-0.264297,0.603376,-0.360273
666,-0.246279,0.518962,-0.338238
667,-0.221942,0.420838,-0.218592
668,-0.072816,0.379551,-0.079197
669,0.140566,0.268352,0.082166
670,0.131276,0.09353,0.224791
671,0.181677,-0.051539,0.2343
672,0.405048,-1.196226,0.30917
673,0.160926,-1.38559,0.259424
674,0.133105,-0.877986,0.260316
675,0.277402,-0.341633,-0.064218
676,-0.194623,-0.499186,-0.460262
677,-0.246016,-0.323886,-0.267122
678,-0.200495,-0.173604,-0.208988
679,-0.248031,0.337441,-0.308767
680,-0.173171,0.222812,-0.307473
681,-0.04913,-0.136621,-0.609983
682,-0.01068,0.04783,-0.563864
683,-0.042224,0.041683,-0.466486
684,-0.148803,0.020404,-0.374846
685,-0.308323,0.085158,-0.14396
686,-0.282013,0.154439,-0.144404
687,-0.278483,0.259314,-0.251628
688,-0.247399,0.326311,-0.215195
689,-0.020259,0.078623,-0.200536
690,0.096165,-0.009423,-0.153315
691,0.219946,0.063769,-0.124994
692,0.163017,0.257108,-0.11392
693,0.141338,0.231803,-0.024439
694,0.200983,0.171208,0.053288
695,0.275141,0.179443,0.05633
696,0.275274,0.141911,0.091893
697,0.186831,-0.017372,0.1363
698,0.078661,-0.035095,-0.010271
699,0.065815,-0.072051,-0.045212
700,0.168228,0.010049,-0.065836
701,0.352278,0.041909,-0.135689
702,0.438518,-0.011625,0.027699
703,0.493397,-0.032113,-0.079459
704,0.425161,-0.155774,-0.135339
705,0.117845,-0.415778,-0.235572
706,0.036693,-0.475158,-0.296826
707,-0.286671,-0.293578,-0.459067
708,-0.330564,-0.405056,-0.284997
709,-0.449424,-0.661879,0.028721
710,-0.398573,-0.463124,-0.033882
711,-0.342767,-0.37265,-0.059045
712,0.005945,-0.132719,0.012762
713,0.119681,-0.002773,-0.023814
714,0.189641,0.163215,-0.139208
715,0.111514,0.233403,-0.148291
716,0.058948,0.261125,-0.174812
717,-0.133727,0.296103,-0.291532
718,-0.282382,0.331912,-0.357764
719,-0.364493,0.400695,-0.340244
720,-0.327125,0.411885,-0.322234
721,-0.233275,0.403847,-0.289572
722,-0.168591,0.450736,-0.223314
723,-0.110092,0.478583,-0.142542
724,0.043768,0.436148,-0.08254
725,0.2262,0.330646,-0.023471
726,0.228777,0.116761,0.089318
727,0.190734,-0.357935,0.047745
728,0.196125,-1.252164,0.182491
729,0.20028,-1.460554,0.202695
730,0.032472,0.569205,0.520654
731,-0.004867,0.223941,-0.418865
732,0.283706,-0.680371,-0.623878
733,-0.388736,-1.076514,-0.412504
734,-0.398254,0.012557,-0.328447
735,-0.23607,0.378324,-0.375827
736,-0.233352,0.447411,-0.439111
737,-0.226119,-0.091437,-0.507952
738,-0.089543,-0.07775,-0.598486
739,0.04518,-0.091429,-0.480089
740,-0.011407,-0.264924,-0.350917
741,-0.188775,-0.147351,-0.145575
742,-0.115818,0.131535,-0.202457
743,-0.09538,0.342469,-0.29425
744,-0.100478,0.442103,-0.292927
745,-0.126673,0.377784,-0.11639
746,-0.096718,0.127713,-0.117424
747,0.055353,-0.055482,-0.185146
748,0.061828,0.147903,-0.101917
749,0.053845,0.245682,0.069509
750,0.129265,0.191778,0.11645
751,0.22717,0.221399,0.007228
752,0.297853,0.170306,0.028385
753,0.262963,0.018522,0.132517
754,0.16202,-0.047355,-0.047469
755,0.195112,-0.046532,0.034943
756,0.242031,-0.00338,0.049187
757,0.499702,0.012661,-0.013113
758,0.530404,-0.011707,0.013858
759,0.412716,-0.04563,-0.060379
760,0.363048,-0.112886,-0.308029
761,0.09571,-0.088753,-0.445236
762,0.100954,-0.341902,-0.259715
763,-0.456578,-0.596837,-0.274486
764,-0.601131,-0.665441,-0.273102
765,-0.603126,-0.748064,-0.280037
766,-0.055682,-0.582092,0.055814
767,0.013768,-0.501637,0.025768
768,0.132205,-0.280207,0.050184
769,0.246172,0.04135,0.039893
770,0.219277,0.181857,-0.073201
771,0.142354,0.238451,-0.162205
772,-0.015449,0.355347,-0.236938
773,-0.130053,0.420142,-0.330898
774,-0.160974,0.441723,-0.488868
775,-0.264356,0.468828,-0.48341
776,-0.330039,0.511231,-0.452393
777,-0.327179,0.494541,-0.381695
778,-0.321703,0.500712,-0.279111
779,-0.318177,0.478863,-0.197779
780,-0.142819,0.410494,-0.066247
781,0.081661,0.235084,0.098913
782,0.085933,-0.077531,0.083442
783,0.296007,-0.699956,0.158379
784,0.40276,-1.423388,0.297923
785,0.182288,-0.992468,0.389478
786,0.19003,0.32633,0.430085
787,-0.176822,0.407487,0.333684
788,0.490565,-1.122731,-0.800873
789,-0.279735,-1.104482,-0.626328
790,-0.482486,0.007266,-0.276961
791,-0.387644,0.58113,-0.457293
792,-0.199502,0.2112,-0.482423
793,0.022918,-0.186807,-0.660206
794,0.310779,0.036667,-0.561684
795,0.242828,0.072555,-0.440542
796,-0.018389,-0.046319,-0.326297
797,-0.288777,-0.017792,-0.074592
798,-0.256248,0.160736,-0.166696
799,-0.162805,0.437781,-0.298131
800,-0.156806,0.432988,-0.208475
801,-0.030584,0.105289,-0.13839
802,0.087175,0.08209,-0.144106
803,0.099004,0.135849,-0.100712
804,0.084947,0.195428,-0.015303
805,0.180451,0.041241,0.145892
806,0.25075,-0.011811,0.140006
807,0.366488,-0.014224,0.08531
808,0.175623,0.129262,0.052382
809,0.21628,0.005021,0.008432
810,0.44167,-0.035486,-0.09061
811,0.656653,0.050333,-0.022027
812,0.53086,0.023224,0.010475
813,0.427832,0.022913,-0.207513
814,-0.002705,-0.124086,-0.36265
815,-0.025545,-0.122153,-0.378342
816,-0.019854,-0.146181,-0.181221
817,-0.378472,-0.756099,-0.361322
818,-0.48793,-1.191964,-0.265721
819,-0.516526,-1.193372,-0.076352
820,-0.22431,-0.745291,0.05135
821,-0.213512,-0.510122,0.026856
822,0.054609,-0.032223,0.009034
823,0.328674,0.297925,-0.10777
824,0.327431,0.374949,-0.21602
825,0.161725,0.254789,-0.268284
826,-0.075077,0.23747,-0.42762
827,-0.310977,0.398215,-0.477787
828,-0.401988,0.603469,-0.507542
829,-0.367972,0.675729,-0.448822
830,-0.261512,0.599884,-0.386668
831,-0.191637,0.523947,-0.28607
832,-0.152767,0.481802,-0.16133
833,0.099308,0.444636,-0.030745
834,0.138755,0.267298,0.063609
835,0.023631,-0.098607,-0.052394
836,0.143051,-1.439439,0.38522
837,0.172129,-1.424261,0.325407
838,0.116399,-0.464386,0.363493
839,-0.443669,0.332367,0.521649
840,0.573372,-0.838322,-0.422905
841,-0.153116,-1.059163,-0.692219
842,-0.137537,-0.120334,-0.423999
843,-0.255466,0.482968,-0.613019
844,-0.346408,0.253553,-0.561078
845,-0.191059,-0.184582,-0.68384
846,0.304218,-0.258896,-0.571937
847,0.308906,-0.30321,-0.522621
848,0.020861,-0.044291,-0.295784
849,-0.205416,0.197184,-0.156005
850,-0.347508,0.313459,-0.222847
851,-0.313176,0.383527,-0.325737
852,-0.178407,0.333398,-0.275898
853,0.013239,0.073505,-0.153025
854,0.142374,-0.028454,-0.129164
855,0.180654,0.12659,-0.154844
856,0.011045,0.296283,-0.056203
857,0.091127,0.188636,0.06133
858,0.228652,0.170866,0.036778
859,0.444402,0.09853,0.042262
860,0.459658,0.099211,0.055115
861,0.283873,0.043361,0.069281
862,0.142067,-0.088258,-0.075097
863,0.345243,-0.040321,-0.106557
864,0.405534,-0.002535,-0.06426
865,0.390419,-0.004842,0.00453
866,0.335797,0.000323,0.034549
867,0.634084,-0.072377,-0.241223
868,0.003568,-0.147412,-0.293192
869,0.149181,-0.283073,-0.329427
870,-0.178583,-0.709065,-0.225928
871,-0.394491,-0.780758,-0.331398
872,-0.443833,-0.866401,-0.178319
873,-0.374388,-0.834843,-0.11433
874,-0.262293,-0.492184,-0.01201
875,-0.18503,-0.349768,-0.008807
876,0.062814,0.025038,-0.046826
877,0.219813,0.300674,-0.158519
878,0.179163,0.281177,-0.170847
879,0.075057,0.217971,-0.202526
880,-0.036164,0.145054,-0.289803
881,-0.188738,0.180211,-0.401736
882,-0.264954,0.330166,-0.490571
883,-0.380842,0.505989,-0.446032
884,-0.298602,0.492722,-0.422421
885,-0.287341,0.499844,-0.395544
886,-0.203558,0.529033,-0.283605
887,-0.072896,0.436913,-0.164532
888,0.12285,0.275792,0.074983
889,0.079241,0.07592,0.128798
890,0.209555,0.095183,0.125009
891,0.430683,-1.30451,0.16889
892,0.280066,-1.345976,-9.40E-05
893,0.097306,-0.752898,0.131435
894,-0.597825,0.510688,0.692672
895,0.347778,-0.67531,-0.278206
896,-0.131901,-0.876033,-0.728199
897,-0.236803,-0.391063,-0.331716
898,-0.306136,0.220824,-0.50633
899,-0.244828,0.316582,-0.648368
900,-0.09854,-0.257457,-0.809911
901,0.121158,-0.118578,-0.5206
902,0.206619,0.054167,-0.44752
903,0.140163,0.169138,-0.449643
904,-0.01921,0.015581,-0.288027
905,-0.105638,-0.05786,-0.216434
906,-0.272575,0.168129,-0.345238
907,-0.246292,0.341552,-0.349746
908,-0.234506,0.220926,-0.191371
909,-0.205421,0.086598,-0.142855
910,0.054582,0.003758,-0.211182
911,0.172867,0.210535,-0.131831
912,0.192313,0.27651,-0.039899
913,0.18548,0.154844,0.039584
914,0.269752,0.103779,0.018524
915,0.437082,0.096746,0.052798
916,0.39068,0.02134,0.052964
917,0.263783,-0.064113,0.043576
918,0.292151,-0.081805,0.04431
919,0.349912,-0.060982,0.022158
920,0.760203,0.107202,-0.091467
921,0.849105,0.073898,-0.140606
922,0.866742,-0.02958,-0.067931
923,0.02167,-0.492275,-0.350657
924,-0.138464,-0.698572,-0.348316
925,-0.399723,-0.591976,-0.321344
926,-0.562943,-0.490435,-0.276485
927,-0.540878,-0.592228,-0.15509
928,-0.495698,-0.689238,-0.104478
929,-0.249102,-0.453539,-0.107954
930,-0.055271,-0.372776,-0.133309
931,0.245236,-0.075594,-0.09919
932,0.223352,0.146308,-0.157508
933,0.157421,0.170199,-0.187466
934,-0.024107,0.24136,-0.278745
935,-0.076096,0.248787,-0.374089
936,-0.124482,0.286376,-0.473987
937,-0.460416,0.370383,-0.396955
938,-0.398549,0.341354,-0.372756
939,-0.355212,0.327947,-0.371736
940,-0.306444,0.468812,-0.295586
941,-0.148556,0.586327,-0.215036
942,-0.035669,0.559601,-0.151923
943,0.15217,0.280228,0.162296
944,0.149442,0.156102,0.196257
945,0.639835,-0.529835,0.179055
946,0.493515,-1.226513,0.339185
947,0.148358,-0.741829,0.362893
948,-0.294644,0.162455,0.343415
949,-0.212129,-0.088376,0.075223
950,0.359957,-1.309501,-0.607726
951,-0.152349,-0.786904,-0.500283
952,-0.205821,0.096703,-0.421928
953,-0.257487,0.68119,-0.539716
954,-0.266829,0.573115,-0.485789
955,-0.132571,-0.165342,-0.570978
956,0.207194,-0.06867,-0.471551
957,0.285091,-0.133016,-0.508496
958,0.056765,-0.161519,-0.369374
959,-0.17484,0.102614,-0.221651
960,-0.206727,0.230514,-0.251494
961,-0.174832,0.480222,-0.243016
962,-0.154888,0.388175,-0.288199
963,-0.105432,0.215078,-0.215741
964,0.046659,-8.00E-06,-0.230881
965,0.147161,0.034922,-0.172727
966,0.00948,0.284705,-0.122545
967,-0.015187,0.235849,-0.008042
968,0.147704,0.083439,0.030999
969,0.292893,0.048417,0.050022
970,0.323218,0.051731,0.054914
971,0.281682,-0.006894,0.059155
972,0.340764,-0.025299,0.03283
973,0.42454,-0.014026,-0.040286
974,0.690135,0.011201,-0.102905
975,0.691446,-0.006196,0.050423
976,0.545177,-0.100014,-0.238936
977,0.213439,-0.221834,-0.257467
978,0.014901,-0.290965,-0.33452
979,-0.395269,-0.778196,-0.280269
980,-0.632453,-0.940309,-0.244438
981,-0.663498,-1.058459,-0.304081
982,-0.17807,-0.502823,-0.063039
983,-0.16632,-0.445931,-0.0375
984,0.033825,-0.191927,0.019319
985,0.222781,0.167543,-0.051244
986,0.276455,0.246526,-0.10278
987,0.247445,0.263799,-0.224123
988,-0.014182,0.23208,-0.280096
989,-0.026121,0.176492,-0.33551
990,-0.341272,0.301053,-0.472345
991,-0.290865,0.433467,-0.496648
992,-0.33183,0.528246,-0.435122
993,-0.309568,0.572532,-0.382185
994,-0.259716,0.588663,-0.278574
995,-0.226169,0.570911,-0.242756
996,0.059664,0.369106,0.034065
997,0.027144,0.071685,0.115427
998,0.041169,-0.148971,0.050815
999,0.368693,-1.031874,0.23426
1000,0.273625,-1.216404,0.243288
1001,0.146903,0.402826,0.397318
1002,-0.154919,0.642826,0.639258
1003,0.287924,-0.592704,-0.533131
1004,-0.106322,-1.272532,-0.783141
1005,-0.404326,-0.307218,-0.345878
1006,-0.421335,0.364406,-0.432088
1007,-0.26375,0.375431,-0.415179
1008,-0.174041,-0.209863,-0.549862
1009,0.060645,-0.185779,-0.581745
1010,0.164932,-0.031066,-0.484528
1011,-0.011915,-0.146956,-0.496911
1012,-0.285598,-0.045876,-0.291747
1013,-0.253408,0.136546,-0.183085
1014,-0.104178,0.333917,-0.297759
1015,-0.082751,0.430929,-0.303002
1016,-0.10362,0.170516,-0.170918
1017,-0.115917,0.030721,-0.169389
1018,-0.118397,-0.058089,-0.191837
1019,0.021475,0.170957,-0.030023
1020,0.130958,0.16864,0.05502
1021,0.26816,0.153564,0.100557
1022,0.548386,0.124484,0.056505
1023,0.362601,0.215351,0.103929
1024,0.364695,0.008899,-0.009978
1025,0.373171,-0.150847,-0.013859
1026,0.332416,-0.027422,-0.045834
1027,0.396508,0.005089,0.040019
1028,0.384193,0.012775,-0.076373
1029,0.235202,-0.14846,-0.316247
1030,0.100379,-0.145184,-0.478922
1031,-0.009303,-0.528506,-0.248292
1032,-0.477247,-0.755421,-0.263713
1033,-0.65761,-0.80535,-0.190272
1034,-0.694804,-0.913031,-0.239483
1035,-0.378276,-0.604596,-0.0412
1036,-0.130356,-0.401703,-0.015394
1037,0.113156,-0.135197,-0.009891
1038,0.231767,0.141278,-0.095962
1039,0.289872,0.285689,-0.18687
1040,0.256407,0.274567,-0.178828
1041,-0.058191,0.203234,-0.257942
1042,-0.173449,0.127147,-0.368269
1043,-0.337973,0.256702,-0.506503
1044,-0.400332,0.490317,-0.500703
1045,-0.423305,0.61035,-0.443542
1046,-0.201474,0.54312,-0.386663
1047,-0.192261,0.515239,-0.328841
1048,-0.195611,0.503197,-0.286855
1049,0.113642,0.323966,0.078183
1050,0.138436,0.25881,0.138208
1051,0.19844,0.070917,-0.013853
1052,0.416022,-1.023627,0.235272
1053,0.344742,-1.662126,0.3195
1054,-0.114305,-0.623248,0.278038
1055,-0.41633,0.13546,0.225449
1056,0.387784,-0.534826,-0.176715
1057,-0.048698,-1.007042,-0.670102
1058,-0.109812,-0.347588,-0.326222
1059,-0.146994,0.277388,-0.585509
1060,-0.219593,0.559624,-0.533168
1061,-0.256599,-0.016954,-0.621413
1062,0.029835,-0.279544,-0.608943
1063,0.314843,-0.137965,-0.465424
1064,0.200039,-0.081421,-0.434019
1065,-0.06371,0.072733,-0.266209
1066,-0.257842,0.18546,-0.233783
1067,-0.263598,0.251792,-0.272463
1068,-0.144189,0.363783,-0.259681
1069,-0.047077,0.241206,-0.16713
1070,0.010732,0.176694,-0.170393
1071,0.07474,0.115061,-0.20769
1072,-0.090963,0.251579,-0.093046
1073,-0.044724,0.211602,-0.006795
1074,0.102002,0.169267,0.015045
1075,0.294758,0.173508,-0.011625
1076,0.358245,-0.005002,0.070527
1077,0.346782,-0.124645,0.046672
1078,0.273745,-0.076958,0.004166
1079,0.292988,0.073272,-0.061021
1080,0.546615,0.153997,-0.124928
1081,0.677363,0.159608,-0.031057
1082,0.459551,0.006569,-0.024511
1083,0.41168,-0.060337,-0.309862
1084,0.030924,-0.20803,-0.383501
1085,-0.014708,-0.046938,-0.388069
1086,-0.144698,-0.488606,-0.316435
1087,-0.59123,-0.900765,-0.320794
1088,-0.766012,-1.257439,-0.289673
1089,-0.695592,-1.186084,-0.093031
1090,-0.313106,-0.685689,0.039921
1091,0.001106,-0.28072,0.016665
1092,0.154837,-0.058054,-0.012558
1093,0.329252,0.220381,-0.137099
1094,0.200432,0.279967,-0.223429
1095,0.274782,0.161615,-0.295883
1096,-0.078377,0.086728,-0.367977
1097,-0.236766,0.326123,-0.481641
1098,-0.30387,0.458956,-0.446319
1099,-0.316787,0.555354,-0.453822
1100,-0.290071,0.825818,-0.339258
1101,-0.207997,0.776718,-0.274191
1102,-0.140328,0.724612,-0.208775
1103,0.26695,0.428476,0.003797
1104,0.023866,0.160637,-0.143815
1105,0.087782,-0.357259,0.180014
1106,0.158794,-1.836838,0.449658
1107,-0.012813,-1.393145,0.309887
1108,-0.236512,0.389288,0.274371
1109,-0.247413,0.147145,-0.089275
1110,0.237357,-1.228652,-0.719313
1111,-0.102022,-0.572516,-0.493609
1112,-0.201598,0.055702,-0.543161
1113,-0.252718,0.392685,-0.592081
1114,-0.100439,-0.492749,-0.705885
1115,0.075081,-0.391945,-0.575172
1116,0.290602,-0.032399,-0.393486
1117,0.040934,0.092551,-0.461252
1118,-0.067189,0.075421,-0.389563
1119,-0.269276,0.035429,-0.282131
1120,-0.258632,0.314489,-0.258457
1121,-0.148146,0.386853,-0.319628
1122,-0.102321,0.428006,-0.180756
1123,0.029461,0.238038,-0.176412
1124,0.15245,0.003383,-0.197761
1125,-0.148289,0.138593,-0.11506
1126,-0.052587,0.185406,0.020899
1127,0.06212,0.064302,0.080437
1128,0.230424,0.106429,0.003006
1129,0.300135,0.089919,-0.061588
1130,0.346134,0.072149,0.062097
1131,0.504721,0.101762,0.120768
1132,0.593057,0.208397,-0.028737
1133,0.682588,0.108544,-0.086735
1134,0.481346,0.058275,-0.048265
1135,0.402351,-0.053182,-0.285189
1136,0.398302,-0.280409,-0.223186
1137,-0.199317,-0.212571,-0.481665
1138,-0.300945,-0.348748,-0.219862
1139,-0.52181,-0.7718,-0.34192
1140,-0.543764,-0.889813,-0.325393
1141,-0.521688,-1.005072,-0.115695
1142,-0.157404,-0.581616,0.013274
1143,-0.155463,-0.548629,-0.039335
1144,-0.096954,-0.433086,-0.059417
1145,0.29768,0.186331,-0.05646
1146,0.260722,0.198518,-0.08824
1147,0.216285,0.158662,-0.158417
1148,-0.033428,0.189795,-0.341113
1149,-0.026973,0.191356,-0.373848
1150,-0.148742,0.220929,-0.48789
1151,-0.202617,0.638592,-0.568883
1152,-0.239878,0.628626,-0.56049
1153,-0.2695,0.650293,-0.507982
1154,-0.225057,0.556233,-0.282364
1155,-0.172148,0.527092,-0.177823
1156,0.065865,0.228769,-0.000999
1157,0.008896,0.141464,0.121017
1158,-0.016767,-0.188754,0.087783
1159,0.254742,-1.631167,0.25922
1160,0.062856,-0.842749,0.463486
1161,0.123817,-0.102069,0.392048
1162,0.275741,-0.084635,-0.576033
1163,0.695621,-1.301792,-0.501556
1164,-0.134758,-1.29031,-0.760483
1165,-0.216827,0.48047,-0.675121
1166,-0.31378,0.699942,-0.576158
1167,-0.372296,0.284938,-0.467697
1168,0.066269,-0.335401,-0.607992
1169,0.244462,-0.267634,-0.529099
1170,0.243225,-0.198011,-0.466763
1171,-0.088034,0.043836,-0.346056
1172,-0.204937,0.061235,-0.293954
1173,-0.404934,0.138026,-0.293858
1174,-0.253288,0.436405,-0.369515
1175,-0.184994,0.422583,-0.352762
1176,-0.089701,0.15124,-0.158771
1177,0.054352,-0.010154,-0.210568
1178,0.148597,0.027861,-0.157406
1179,-0.003189,0.219623,-0.01093
1180,0.137322,0.204346,0.078935
1181,0.313203,0.140949,0.054605
1182,0.469088,0.125323,0.052535
1183,0.337487,0.178979,-0.045345
1184,0.171125,0.089738,0.065888
1185,0.397318,0.01657,-0.100138
1186,0.585942,0.150186,-0.1048
1187,0.523629,0.0696,0.069015
1188,0.40343,-0.022574,-0.228025
1189,0.572567,-0.140866,-0.374216
1190,0.003904,-0.230594,-0.330076
1191,-0.072364,-0.359228,-0.319417
1192,-0.58132,-0.839188,-0.386643
1193,-0.585413,-1.007622,-0.363369
1194,-0.267472,-0.928098,-0.179761
1195,-0.146498,-0.546322,-0.009452
1196,-0.200965,-0.51438,-0.044785
1197,-0.069878,-0.290485,-0.082183
1198,0.12537,0.105459,-0.138108
1199,0.132629,0.286787,-0.150388
1200,0.07806,0.239492,-0.224343
1201,-0.004904,0.213383,-0.367855
1202,-0.179215,0.274513,-0.491882
1203,-0.253747,0.379074,-0.556347
1204,-0.288545,0.501666,-0.618041
1205,-0.334405,0.682221,-0.480884
1206,-0.278558,0.623823,-0.413215
1207,-0.225457,0.507875,-0.239707
1208,-0.146594,0.439571,-0.042721
1209,0.136515,0.198924,0.050625
1210,0.169868,-0.01028,0.041093
1211,0.191445,-0.413982,0.157221
1212,0.21957,-1.670324,0.291818
1213,0.325804,-0.350402,0.216891
1214,-0.37631,0.632655,0.662005
1215,0.683791,-1.125042,-0.688536
1216,0.180631,-1.656034,-0.804579
1217,-0.277703,-0.096935,-0.4199
1218,-0.260613,0.684589,-0.628625
1219,-0.264762,0.414493,-0.529561
1220,-0.218138,0.015173,-0.770405
1221,0.158277,-0.1817,-0.643254
1222,0.225528,-0.171989,-0.551758
1223,-0.038316,-0.041784,-0.414847
1224,-0.244237,0.068445,-0.201583
1225,-0.323542,0.229436,-0.237645
1226,-0.216987,0.401033,-0.385133
1227,-0.188453,0.448032,-0.377086
1228,-0.066772,0.267278,-0.193565
1229,0.087484,-0.067898,-0.178566
1230,0.057684,0.033035,-0.190678
1231,0.0589,0.157498,-0.052893
1232,0.238185,0.109923,0.001694
1233,0.346649,0.116061,0.065235
1234,0.45197,0.042069,0.089813
1235,0.29709,0.068024,0.017302
1236,0.307559,0.115483,0.006143
1237,0.392687,0.11174,-0.002572
1238,0.630452,0.153894,-0.197744
1239,0.637731,0.153565,-0.192827
1240,0.343053,0.016902,-0.168728
1241,0.102904,-0.350887,-0.17487
1242,-0.222558,-0.316336,-0.372705
1243,-0.309617,-0.213032,-0.402568
1244,-0.353094,-0.596797,-0.412663
1245,-0.34124,-0.720742,-0.398347
1246,-0.244602,-1.002228,-0.222009
1247,-0.181557,-0.654498,-0.072599
1248,-0.260863,-0.584033,-0.080768
1249,-0.20372,-0.487767,-0.056316
1250,0.033982,-0.120339,-0.146904
1251,0.165866,0.168193,-0.195452
1252,0.055638,0.270122,-0.280354
1253,-0.042068,0.257934,-0.370697
1254,0.034722,0.221547,-0.418281
1255,-0.125768,0.308621,-0.540612
1256,-0.361894,0.511808,-0.545013
1257,-0.473577,0.667329,-0.51112
1258,-0.38051,0.646154,-0.448285
1259,-0.253218,0.592805,-0.334164
1260,-0.052904,0.534914,-0.152595
1261,0.222101,0.348768,0.03923
1262,0.098898,0.037591,0.138344
1263,0.056069,-0.750531,0.241091
1264,0.350226,-1.631013,0.340162
1265,0.155252,-1.647295,0.247502
1266,0.126067,0.317038,0.369561
1267,0.071132,0.391319,-0.075667
1268,0.384609,-1.101235,-0.616274
1269,-0.198611,-0.798519,-0.753414
1270,-0.270835,0.063239,-0.54516
1271,-0.385929,0.605241,-0.518614
1272,-0.414627,0.041866,-0.386808
1273,-0.162516,-0.42521,-0.693608
1274,0.138052,-0.095154,-0.53849
1275,0.164225,-0.054408,-0.556205
1276,-0.062993,-0.007627,-0.411663
1277,-0.234796,0.110495,-0.30753
1278,-0.26192,0.208202,-0.364025
1279,-0.221665,0.300524,-0.388005
1280,-0.105835,0.30507,-0.191187
1281,-0.104353,0.311091,-0.155796
1282,-0.0189,0.040051,-0.231385
1283,0.021434,0.003617,-0.288758
1284,0.105256,0.157633,-0.154807
1285,0.18387,0.150346,0.042023
1286,0.29596,0.207143,0.017548
1287,0.41103,0.220519,-0.007444
1288,0.492587,0.096847,0.099152
1289,0.300041,0.068604,0.010315
1290,0.256583,0.124784,-0.045482
1291,0.426603,0.142623,-0.074627
1292,0.505526,0.114677,-0.1706
1293,0.463084,0.019258,-0.021925
1294,0.238249,-0.109936,-0.093806
1295,0.562768,-0.118092,-0.284236
1296,-0.000728,-0.181672,-0.423773
1297,-0.039019,-0.318618,-0.415279
1298,-0.302765,-0.596095,-0.340969
1299,-0.457154,-0.730072,-0.312339
1300,-0.464461,-1.05234,-0.254594
1301,-0.422704,-0.859436,-0.090147
1302,-0.380677,-0.692414,-0.07828
1303,-0.171308,-0.444203,-0.070856
1304,0.259226,0.105953,-0.079289
1305,0.286847,0.17676,-0.142524
1306,0.150078,0.274941,-0.272016
1307,0.00477,0.252956,-0.41828
1308,-0.031932,0.24295,-0.405758
1309,-0.047172,0.39924,-0.549023
1310,-0.276147,0.50046,-0.568342
1311,-0.356818,0.568471,-0.551103
1312,-0.355613,0.64678,-0.432427
1313,-0.25323,0.545735,-0.304558
1314,-0.209221,0.544397,-0.225176
1315,0.157185,0.371436,0.016908
1316,0.063926,0.046295,-0.001541
1317,0.190902,-0.009023,0.108403
1318,0.376781,-1.813609,0.339827
1319,0.164366,-0.973363,0.247228
1320,-0.073223,0.373341,0.292561
1321,-0.119204,0.064457,-0.044921
1322,0.29745,-1.601224,-0.798124
1323,-0.163558,-1.437148,-0.712498
1324,-0.142472,0.31431,-0.633751
1325,-0.165436,0.831436,-0.651506
1326,-0.242669,0.379541,-0.605674
1327,-0.118108,-0.392173,-0.758267
1328,0.412392,-0.427045,-0.42362
1329,0.297146,-0.299272,-0.490477
1330,-0.004155,0.046868,-0.405942
1331,-0.210241,0.100164,-0.307713
1332,-0.346384,0.110198,-0.31331
1333,-0.383587,0.341763,-0.334144
1334,-0.240421,0.368831,-0.370214
1335,-0.112712,0.192647,-0.240895
1336,0.113958,-0.009973,-0.271088
1337,0.132253,-0.067585,-0.21839
1338,0.037866,0.047622,-0.171028
1339,0.108041,0.1021,-0.006212
1340,0.337974,0.226464,-0.029297
1341,0.462506,0.24576,-0.042678
1342,0.508706,0.220006,0.015344
1343,0.360251,0.068547,-0.00877
1344,0.475708,0.097872,-0.058203
1345,0.557992,0.121547,-0.095695
1346,0.533412,0.138937,-0.05279
1347,0.420658,0.054247,-0.047225
1348,0.345893,0.02216,-0.338405
1349,-0.158574,-0.126129,-0.31383
1350,-0.192126,-0.30025,-0.312931
1351,-0.660751,-1.099968,-0.400152
1352,-0.743868,-1.190232,-0.352018
1353,-0.389315,-1.12973,-0.227355
1354,-0.004464,-0.519348,-0.106825
1355,-0.123062,-0.522168,-0.174193
1356,-0.008771,-0.272685,-0.062395
1357,0.159747,0.112978,-0.102087
1358,0.184674,0.214725,-0.188139
1359,0.141073,0.203065,-0.265985
1360,-0.03434,0.201014,-0.429684
1361,-0.092449,0.202008,-0.48809
1362,-0.343949,0.430419,-0.553796
1363,-0.375128,0.687482,-0.526905
1364,-0.249325,0.749815,-0.52649
1365,-0.255641,0.650244,-0.438053
1366,-0.224423,0.563239,-0.312697
1367,-0.057874,0.531257,-0.168536
1368,0.083846,0.342328,-0.021966
1369,0.010526,0.078535,0.129605
1370,0.15002,-0.820235,0.200166
1371,0.375448,-1.76415,0.233438
1372,0.081822,-0.969163,0.376313
1373,0.072314,0.333518,0.387927
1374,-0.224817,0.379706,0.072425
1375,0.650436,-1.293055,-0.674627
1376,-0.24741,-0.425923,-0.590124
1377,-0.236311,-0.356793,-0.267945
1378,-0.199167,0.431408,-0.580323
1379,-0.220107,0.067127,-0.516382
1380,0.004057,-0.490227,-0.705298
1381,0.31436,-0.249171,-0.478139
1382,0.154974,-0.023244,-0.479146
1383,-0.074055,0.166268,-0.433111
1384,-0.299499,0.033251,-0.349204
1385,-0.425449,0.061313,-0.428199
1386,-0.227815,0.324979,-0.402773
1387,-0.195727,0.370109,-0.305167
1388,-0.092287,0.210277,-0.184706
1389,0.015796,-0.019035,-0.270209
1390,0.03114,-0.001858,-0.202371
1391,0.092869,0.101867,-0.053216
1392,0.214735,0.14316,-0.010845
1393,0.34272,0.186215,0.026442
1394,0.533772,0.182844,0.087919
1395,0.315812,0.0845,0.108152
1396,0.439209,0.019906,-0.010679
1397,0.435843,0.148383,-0.140163
1398,0.589185,0.190089,-0.1205
1399,0.64942,0.088798,-0.235722
1400,0.483031,-0.219842,-0.465243
1401,-0.187673,-0.271817,-0.474956
1402,-0.38165,-0.729748,-0.290258
1403,-0.50854,-0.806322,-0.436882
1404,-0.519635,-0.713943,-0.418927
1405,-0.420123,-0.832257,-0.168634
1406,-0.303054,-0.578328,-0.085167
1407,-0.095072,-0.446665,-0.141545
1408,0.134934,-0.24149,-0.082051
1409,0.276642,0.012098,-0.083664
1410,0.302623,0.10008,-0.118252
1411,0.128313,0.129308,-0.210784
1412,-0.123215,0.218786,-0.335734
1413,-0.266914,0.256271,-0.374872
1414,-0.132657,0.351756,-0.54994
1415,-0.45091,0.640178,-0.593008
1416,-0.22197,0.660649,-0.561993
1417,-0.303018,0.596448,-0.501023
1418,-0.288267,0.581849,-0.405844
1419,-0.268012,0.539376,-0.255888
1420,-0.083899,0.42707,-0.105389
1421,0.047582,0.197716,-0.067382
1422,0.087208,-0.19005,0.108422
1423,0.356546,-1.460136,0.294832
1424,0.233049,-1.513829,0.268555
1425,0.139701,-0.291494,0.432197
1426,-0.286006,0.148555,0.223327
1427,0.467634,-1.311751,-0.59017
1428,-0.172916,-0.909862,-0.521789
1429,-0.131763,0.252463,-0.578777
1430,-0.162796,0.753693,-0.61892
1431,-0.231,0.709889,-0.575595
1432,-0.257942,-0.156092,-0.765971
1433,0.200772,-0.359871,-0.568591
1434,0.347568,-0.417496,-0.52574
1435,0.033572,-0.056916,-0.375673
1436,-0.201921,0.203279,-0.241243
1437,-0.307797,0.225782,-0.260301
1438,-0.353485,0.411193,-0.433721
1439,-0.209268,0.303904,-0.335899
1440,-0.114373,0.100366,-0.243891
1441,0.1788,-0.107913,-0.287452
1442,0.078474,0.205529,-0.18209
1443,0.078694,0.140535,-0.024712
1444,0.266255,0.107473,0.017142
1445,0.449974,0.140446,0.009893
1446,0.455501,0.146735,0.107453
1447,0.308495,0.146536,0.12505
1448,0.476304,0.02801,-0.042341
1449,0.448402,-0.03268,-0.045229
1450,0.425779,-0.016412,-0.132384
1451,0.463156,0.126014,-0.213931
1452,0.552624,0.078997,-0.335768
1453,0.634831,-0.102736,-0.266914
1454,-0.17823,-0.27154,-0.320024
1455,-0.273504,-0.565829,-0.209003
1456,-0.438852,-0.778141,-0.305439
1457,-0.623869,-1.035991,-0.445756
1458,-0.591413,-1.074006,-0.339762
1459,-0.263007,-0.601492,-0.017336
1460,-0.095259,-0.316363,-0.068394
1461,0.036243,-0.112731,-0.073779
1462,0.341418,0.310136,-0.195565
1463,0.28023,0.276862,-0.226857
1464,0.151671,0.262914,-0.310964
1465,-0.159576,0.234335,-0.427432
1466,0.083898,0.218537,-0.416252
1467,-0.40386,0.474587,-0.58166
1468,-0.412856,0.698913,-0.502521
1469,-0.259037,0.626954,-0.486097
1470,-0.19978,0.573832,-0.321998
1471,-0.166466,0.587619,-0.154573
1472,0.058738,0.406154,0.016169
1473,0.121684,0.171797,0.149465
1474,0.285559,-0.405496,0.057379
1475,0.455489,-2.05758,0.225462
1476,0.100956,-1.293429,0.367665
1477,-0.079109,0.302472,0.434736
1478,-0.274806,0.304149,0.08163
1479,0.480433,-1.291095,-0.888227
1480,-0.254116,-0.534288,-0.605385
1481,-0.226079,0.053116,-0.510004
1482,-0.18709,0.352662,-0.747966
1483,-0.214789,-0.003219,-0.659073
1484,-0.01523,-0.527041,-0.690762
1485,0.21626,-0.374884,-0.535149
1486,0.2692,0.030026,-0.481427
1487,-0.091892,0.136616,-0.40958
1488,-0.204136,0.050585,-0.368619
1489,-0.39505,0.097447,-0.384069
1490,-0.25006,0.346598,-0.422281
1491,-0.241031,0.41315,-0.28692
1492,-0.18753,0.363589,-0.188538
1493,0.135088,0.027876,-0.35857
1494,0.129482,0.048889,-0.277186
1495,0.060868,0.138197,-0.199049
1496,0.120452,0.027655,-0.043483
1497,0.22978,0.03087,-0.051397
1498,0.307242,0.030653,-0.037917
1499,0.294124,0.074873,0.075108
1500,0.313446,0.107284,-0.000497
1501,0.554907,0.113722,-0.093046
1502,0.703928,0.140178,-0.195241
1503,0.746402,0.152047,-0.16063
1504,0.510808,-0.047005,-0.321696
1505,0.213339,-0.33136,-0.461465
1506,-0.072273,-0.256176,-0.602121
1507,-0.266578,-0.499621,-0.273626
1508,-0.610925,-0.793711,-0.385693
1509,-0.572455,-0.89563,-0.379097
1510,-0.285442,-0.824956,-0.159781
1511,-0.219749,-0.506865,-0.088248
1512,-0.19763,-0.43349,-0.144456
1513,0.012328,-0.19074,-0.05713
1514,0.267073,0.077301,-0.120846
1515,0.288632,0.195071,-0.205303
1516,0.146853,0.242822,-0.324509
1517,0.021026,0.173564,-0.417184
1518,-0.136618,0.176413,-0.477967
1519,-0.138097,0.371544,-0.564519
1520,-0.28888,0.543153,-0.603093
1521,-0.383485,0.646058,-0.51467
1522,-0.358664,0.662575,-0.433881
1523,-0.244494,0.586183,-0.294054
1524,-0.123742,0.511263,-0.148149
1525,0.060035,0.43734,-0.065027
1526,0.137991,-0.009111,0.187156
1527,0.216272,-0.433683,0.154542
1528,0.324887,-1.262145,0.214014
1529,0.292837,-1.221998,0.254637
1530,0.30763,-0.381151,0.336448
1531,0.252121,-0.463022,-0.299196
1532,0.017787,-1.639822,-1.083366
1533,-0.379498,-0.364155,-0.435915
1534,-0.193996,0.664658,-0.667857
1535,-0.350131,0.682689,-0.446731
1536,-0.23086,-0.038024,-0.771721
1537,0.161851,-0.26816,-0.675188
1538,0.278327,-0.372366,-0.536606
1539,0.108458,-0.248274,-0.456809
1540,-0.239759,0.032095,-0.292446
1541,-0.36828,0.153065,-0.341228
1542,-0.273472,0.382199,-0.307676
1543,-0.136347,0.397757,-0.425602
1544,-0.106166,0.261771,-0.257634
1545,0.035411,0.016044,-0.235771
1546,0.038528,0.047484,-0.258079
1547,-0.088746,0.187313,-0.133787
1548,0.001337,0.082749,-0.049106
1549,0.34321,0.112579,-0.085613
1550,0.389302,0.217153,-0.0567
1551,0.400606,0.183269,0.039672
1552,0.305974,0.154859,0.013187
1553,0.450825,0.129192,0.035253
1554,0.515476,0.173879,-0.137496
1555,0.81975,0.214459,-0.09641
1556,0.693224,0.167121,-0.144778
1557,0.5563,-0.203853,-0.18277
1558,-0.106291,-0.354508,-0.460407
1559,-0.312895,-0.491966,-0.377711
1560,-0.633672,-0.811625,-0.449069
1561,-0.586207,-0.849434,-0.515528
1562,-0.562082,-0.861315,-0.226274
1563,-0.339226,-0.515638,-0.038722
1564,-0.187182,-0.478045,-0.03572
1565,0.054243,-0.270575,-0.064088
1566,0.240486,0.028821,-0.116283
1567,0.265298,0.177366,-0.238415
1568,0.044765,0.270195,-0.232264
1569,0.075869,0.24332,-0.360434
1570,-0.125688,0.274882,-0.473825
1571,-0.208225,0.39348,-0.531336
1572,-0.232334,0.488869,-0.58686
1573,-0.321351,0.52641,-0.5271
1574,-0.294997,0.492012,-0.432346
1575,-0.266717,0.477863,-0.32834
1576,-0.18319,0.506951,-0.229213
1577,0.12894,0.308416,-0.026748
1578,0.04893,0.147762,0.146903
1579,-0.038323,-0.050926,0.235093
1580,0.163319,-1.65379,0.200344
1581,0.07402,-1.404489,0.194221
1582,0.09792,-0.134837,0.310694
1583,-0.176768,0.018658,0.274318
1584,0.38701,-1.166502,-0.657494
1585,0.054161,-1.304234,-1.055457
1586,-0.08099,0.563544,-0.598798
1587,-0.178208,0.662482,-0.601829
1588,-0.2912,0.543392,-0.495801
1589,-0.158244,-0.300667,-0.766388
1590,0.309443,-0.216671,-0.637957
1591,0.380916,-0.233551,-0.557261
1592,-0.062033,-0.041602,-0.338358
1593,-0.191014,-0.02575,-0.283349
1594,-0.286868,-0.006383,-0.314271
1595,-0.225231,0.354266,-0.377541
1596,-0.193795,0.277871,-0.366584
1597,-0.154833,0.124326,-0.275192
1598,-0.035152,-0.000381,-0.308302
1599,0.081966,-0.061706,-0.276081
1600,0.002922,0.239178,-0.142881
1601,0.071282,0.169734,-0.002884
1602,0.167042,0.174453,-0.014049
1603,0.388435,0.299416,-0.00035
1604,0.394328,0.146244,0.039217
1605,0.320803,0.079116,0.046185
1606,0.307798,0.024189,-0.074548
1607,0.502901,0.133244,-0.221053
1608,0.607648,0.198094,-0.122142
1609,0.54698,0.026391,-0.232961
1610,0.494298,-0.249234,-0.403958
1611,-0.174883,-0.299187,-0.389992
1612,-0.305069,-0.670725,-0.292223
1613,-0.560466,-0.817774,-0.57252
1614,-0.541054,-0.964456,-0.463359
1615,-0.37191,-0.936759,-0.176543
1616,-0.169062,-0.498256,-0.080683
1617,-0.173566,-0.414049,-0.176311
1618,0.031559,-0.205523,-0.116509
1619,0.240199,0.093309,-0.149035
1620,0.282853,0.212942,-0.207665
1621,0.206623,0.200068,-0.282032
1622,0.128425,0.2185,-0.466011
1623,-0.126566,0.226457,-0.452432
1624,-0.240219,0.31043,-0.552025
1625,-0.377382,0.700277,-0.511266
1626,-0.358896,0.699636,-0.521151
1627,-0.276958,0.654878,-0.440409
1628,-0.173138,0.463524,-0.234734
1629,-0.076985,0.378132,-0.141303
1630,0.07042,0.240658,-0.052493
1631,-0.003369,-0.2087,0.092688
1632,0.05101,-0.633133,0.196575
1633,0.238923,-1.505744,0.122301
1634,0.249221,-1.066696,0.258665
1635,0.201159,-0.038628,0.472908
1636,0.12519,-0.046515,0.069683
1637,0.268738,-1.383764,-0.9326
1638,-0.39569,-0.761109,-0.579654
1639,-0.29723,0.282272,-0.59899
1640,-0.367119,0.703199,-0.556919
1641,-0.346041,0.404051,-0.465309
1642,-0.108757,-0.037764,-0.750465
1643,0.285765,-0.301744,-0.595387
1644,0.384822,-0.473264,-0.529998
1645,-0.14074,0.051807,-0.315555
1646,-0.187856,0.160563,-0.234388
1647,-0.327189,0.30124,-0.305387
1648,-0.243575,0.447293,-0.430585
1649,-0.207116,0.410882,-0.355016
1650,-0.011978,-0.050567,-0.241644
1651,0.12426,-0.011911,-0.305955
1652,0.0582,0.216232,-0.185066
1653,0.062898,0.204125,-0.044731
1654,0.236879,0.204579,-0.041292
1655,0.396355,0.159888,-0.046901
1656,0.370589,0.093608,-0.028618
1657,0.352737,0.025097,0.008052
1658,0.538476,0.007297,-0.031372
1659,0.421642,0.001152,-0.151167
1660,0.450086,-0.039063,-0.073218
1661,0.28815,0.018763,-0.209633
1662,0.555727,-0.198567,-0.365999
1663,-0.061522,-0.216803,-0.465762
1664,-0.109386,-0.316529,-0.311029
1665,-0.337499,-0.5615,-0.44862
1666,-0.470803,-0.652787,-0.415538
1667,-0.543593,-1.075612,-0.325328
1668,-0.506764,-0.908869,-0.250319
1669,-0.213959,-0.458642,-0.132885
1670,-0.005263,-0.246885,-0.115102
1671,0.10459,-0.118429,-0.13657
1672,0.332616,0.11662,-0.176337
1673,0.215926,0.223797,-0.312774
1674,0.034113,0.266938,-0.432547
1675,-0.0288,0.237808,-0.520357
1676,-0.218391,0.334853,-0.594258
1677,-0.376939,0.574982,-0.626271
1678,-0.279272,0.593762,-0.603472
1679,-0.299502,0.558256,-0.515643
1680,-0.210718,0.555029,-0.367653
1681,-0.170045,0.523179,-0.241463
1682,0.05156,0.320073,-0.068572
1683,0.07322,0.097844,0.111913
1684,0.137656,-0.240395,0.050783
1685,0.372617,-1.609887,0.270122
1686,0.349356,-1.749668,0.168836
1687,0.011553,0.383593,0.565632
1688,0.154296,-0.123193,-0.157987
1689,0.405679,-1.656948,-1.108628
1690,-0.390264,-0.532495,-0.542377
1691,-0.426287,0.439001,-0.560798
1692,-0.39469,0.821149,-0.575585
1693,-0.195023,0.192118,-0.705612
1694,-0.062607,-0.15685,-0.875296
1695,0.457602,-0.465917,-0.513738
1696,0.255854,-0.174743,-0.531041
1697,-0.110596,0.171942,-0.40479
1698,-0.277636,0.111302,-0.340701
1699,-0.358664,0.228321,-0.422995
1700,-0.309462,0.353527,-0.482749
1701,-0.225393,0.238915,-0.351742
1702,-0.085489,0.020133,-0.252982
1703,0.065705,-0.039794,-0.313022
1704,0.09153,0.044976,-0.221108
1705,0.109793,0.172653,-0.153852
1706,0.273604,0.169326,-0.089622
1707,0.424543,0.168066,-0.035129
1708,0.516766,0.084652,0.053179
1709,0.293401,0.124913,0.04266
1710,0.298219,0.09311,0.000484
1711,0.406975,0.012453,-0.084893
1712,0.50856,0.1065,-0.240669
1713,0.601502,0.111902,-0.166649
1714,0.558574,0.035141,-0.304758
1715,0.532098,-0.271689,-0.524082
1716,-0.182901,-0.270495,-0.523978
1717,-0.303035,-0.674989,-0.294464
1718,-0.555913,-0.752056,-0.516775
1719,-0.596381,-0.684376,-0.479035
1720,-0.468742,-0.813091,-0.217203
1721,-0.358951,-0.575053,-0.125041
1722,-0.204337,-0.457092,-0.215179
1723,0.024689,-0.246296,-0.113871
1724,0.2823,0.083835,-0.131639
1725,0.300435,0.129317,-0.20116
1726,0.249679,0.152265,-0.271817
1727,-0.05782,0.236241,-0.434713
1728,0.065377,0.191024,-0.477249
1729,-0.104194,0.240573,-0.538295
1730,-0.306517,0.643322,-0.56255
1731,-0.249743,0.570966,-0.524519
1732,-0.212207,0.569489,-0.395773
1733,-0.192787,0.552353,-0.272504
1734,-0.000679,0.422727,-0.103706
1735,0.179209,0.229679,0.024781
1736,0.131596,-0.084598,0.002348
1737,0.34429,-1.487221,0.274361
1738,0.163062,-1.586436,0.177523
1739,0.097062,-0.401838,0.356199
1740,-0.270261,-0.064268,0.239442
1741,0.461351,-1.283485,-0.716554
1742,-0.216455,-0.789643,-0.472552
1743,-0.059471,0.291345,-0.693155
1744,-0.208705,0.732733,-0.739151
1745,-0.359094,0.291294,-0.491318
1746,-0.3536,-0.12672,-0.735693
1747,0.262917,-0.414389,-0.611799
1748,0.34399,-0.346299,-0.569428
1749,0.087576,0.022212,-0.444255
1750,-0.144302,0.254874,-0.289909
1751,-0.334576,0.28771,-0.359588
1752,-0.298683,0.447446,-0.4054
1753,-0.213319,0.412357,-0.389231
1754,0.029659,0.03133,-0.331186
1755,0.136111,-0.037766,-0.353279
1756,0.229411,-0.035088,-0.312478
1757,-0.006214,0.223077,-0.156265
1758,0.008262,0.226712,-0.13513
1759,0.178766,0.123456,-0.093019
1760,0.258084,0.063332,-0.077098
1761,0.313537,-0.048343,-0.008801
1762,0.243029,-0.014182,-0.03952
1763,0.252424,0.024861,-0.138418
1764,0.398722,0.059138,-0.219078
1765,0.568419,0.113681,-0.175969
1766,0.473416,0.033924,-0.059756
1767,0.527397,-0.061094,-0.295504
1768,0.343225,-0.071693,-0.47362
1769,-0.044194,-0.143839,-0.451451
1770,-0.1731,-0.530041,-0.381634
1771,-0.504026,-0.705522,-0.476334
1772,-0.556735,-0.690881,-0.429772
1773,-0.434422,-0.752471,-0.193406
1774,-0.250737,-0.534429,-0.116705
1775,-0.131407,-0.533337,-0.097841
1776,0.078447,-0.232873,-0.096901
1777,0.242226,0.01192,-0.187547
1778,0.263233,0.104347,-0.235956
1779,0.117794,0.124124,-0.306538
1780,0.115207,0.091358,-0.413218
1781,-0.149868,0.119993,-0.53172
1782,-0.263615,0.32397,-0.590596
1783,-0.334713,0.511126,-0.595293
1784,-0.326745,0.62811,-0.542023
1785,-0.321698,0.647929,-0.476546
1786,-0.235536,0.583256,-0.34474
1787,-0.156085,0.549051,-0.268114
1788,0.139683,0.427647,-0.065065
1789,0.090053,-0.015468,-0.077212
1790,0.176873,-0.077246,0.054168
1791,0.292962,-0.780336,0.235367
1792,0.199379,-1.532491,0.286757
1793,0.042084,-0.126811,0.478588
1794,0.158579,-0.296586,-0.056746
1795,0.146961,-1.271827,-0.797292
1796,-0.233513,-0.406956,-0.403255
1797,-0.071147,0.362181,-0.64514
1798,-0.22692,0.764657,-0.579725
1799,-0.297565,0.234089,-0.588573
1800,-0.216321,-0.405228,-0.791602
1801,0.065049,-0.396556,-0.681065
1802,0.082545,-0.284607,-0.506865
1803,0.093862,-0.270053,-0.47246
1804,-0.217767,0.24443,-0.265955
1805,-0.319626,0.454962,-0.372424
1806,-0.256099,0.439946,-0.458657
1807,-0.204043,0.408128,-0.450778
1808,0.224651,-0.122353,-0.279774
1809,0.288271,-0.132735,-0.256344
1810,0.008722,0.150541,-0.256223
1811,-0.246986,0.360706,-0.201766
1812,-0.068531,0.118697,0.000896
1813,0.291471,0.069057,-0.040624
1814,0.550576,0.023571,-0.119848
1815,0.378928,0.040411,0.024584
1816,0.159222,0.054359,-0.106838
1817,0.41055,-0.007914,-0.193349
1818,0.39455,0.023662,-0.134097
1819,0.38721,-0.001276,-0.114013
1820,0.450259,-0.042017,-0.18589
1821,0.668442,-0.193335,-0.337929
1822,-0.053565,-0.317462,-0.438252
1823,-0.191664,-0.537778,-0.384983
1824,-0.558705,-0.638439,-0.468076
1825,-0.527161,-0.58706,-0.396692
1826,-0.432602,-0.677957,-0.176107
1827,-0.30785,-0.50973,-0.078631
1828,-0.10037,-0.389032,-0.12095
1829,0.121441,-0.154101,-0.068299
1830,0.274951,0.110943,-0.14022
1831,0.30286,0.210471,-0.25156
1832,0.171193,0.242797,-0.308075
1833,-0.141335,0.216902,-0.365929
1834,-0.01153,0.119823,-0.415709
1835,-0.298648,0.224563,-0.522254
1836,-0.286719,0.334254,-0.554399
1837,-0.256188,0.425111,-0.509659
1838,-0.223873,0.43789,-0.487878
1839,-0.163779,0.494553,-0.377057
1840,-0.11473,0.522011,-0.348772
1841,0.055952,0.414947,-0.208189
1842,0.162585,0.201943,-0.02294
1843,0.172089,-0.099856,-0.013577
1844,0.420876,-1.380729,0.191291
1845,0.324036,-1.533881,0.250892
1846,0.171574,-0.622216,0.328132
1847,-0.509222,0.163803,0.515264
1848,0.720852,-1.344435,-0.787287
1849,-0.33607,-1.041283,-0.725374
1850,-0.24467,0.633033,-0.575677
1851,-0.254103,0.86734,-0.659744
1852,-0.289486,0.794573,-0.592446
1853,-0.026635,-0.550214,-0.825108
1854,0.270382,-0.583637,-0.714368
1855,0.392186,-0.564885,-0.633063
1856,-0.101304,0.04519,-0.337941
1857,-0.18025,0.172908,-0.260289
1858,-0.287072,0.183881,-0.295462
1859,-0.203987,0.396703,-0.469199
1860,-0.170522,0.363803,-0.46491
1861,-0.113338,0.341486,-0.37394
1862,0.288668,-0.049957,-0.352262
1863,0.231327,0.011532,-0.293106
1864,-0.154109,0.345165,-0.210939
1865,0.04147,0.143844,-0.0401
1866,0.155861,0.049343,-0.011087
1867,0.308992,-0.035794,-0.129525
1868,0.342914,-0.085289,-0.002502
1869,0.280354,-0.029921,0.00576
1870,0.338626,0.205998,-0.127517
1871,0.542913,0.085521,-0.139113
1872,0.653751,0.015369,-0.161137
1873,0.36937,-0.035135,-0.014327
1874,0.320249,-0.104155,-0.413429
1875,0.645712,-0.226404,-0.435037
1876,-0.02245,-0.269117,-0.68215
1877,-0.249134,-0.414444,-0.37006
1878,-0.521195,-0.639273,-0.353101
1879,-0.537124,-0.590704,-0.420244
1880,-0.471911,-0.725503,-0.31086
1881,-0.467501,-0.586374,-0.101621
1882,-0.302067,-0.423431,-0.234634
1883,-0.096411,-0.283373,-0.220844
1884,0.150431,-0.01848,-0.166856
1885,0.258644,0.125329,-0.172385
1886,0.213628,0.139405,-0.293749
1887,0.119156,0.156738,-0.318543
1888,-0.164868,0.119029,-0.422283
1889,-0.081659,0.157055,-0.483852
1890,-0.239519,0.234117,-0.561223
1891,-0.405889,0.610879,-0.532312
1892,-0.210216,0.553092,-0.489826
1893,-0.126532,0.540355,-0.377347
1894,-0.078998,0.547802,-0.263866
1895,0.111903,0.430042,-0.131821
1896,0.2852,0.228387,-0.100491
1897,0.262366,0.055097,-0.093636
1898,0.285718,-1.529475,0.144061
1899,0.187659,-1.667375,0.157311
1900,0.175885,-0.888689,0.267231
1901,-0.430193,0.464235,0.725867
1902,0.394951,-0.799497,-0.656962
1903,-0.12124,-1.328225,-1.026726
1904,-0.19322,-0.210592,-0.368257
1905,-0.161265,0.720057,-0.718242
1906,-0.22123,0.108543,-0.630291
1907,0.013732,-0.4787,-0.843287
1908,0.330801,-0.419023,-0.619423
1909,0.156274,-0.214645,-0.552663
1910,-0.115401,0.03873,-0.434786
1911,-0.266413,0.023403,-0.377855
1912,-0.357887,0.143369,-0.450781
1913,-0.231601,0.365392,-0.536403
1914,-0.182781,0.375235,-0.499604
1915,-0.06545,0.110766,-0.267407
1916,0.029131,-0.030715,-0.376338
1917,0.074827,-0.025283,-0.38093
1918,-0.08686,0.214759,-0.207602
1919,0.054764,0.211231,-0.063181
1920,0.316973,0.221219,-0.035921
1921,0.438596,0.206501,-0.043401
1922,0.389787,0.189759,-0.015931
1923,0.248219,0.03894,-0.044058
1924,0.34444,-0.083742,-0.131153
1925,0.458376,0.067521,-0.188865
1926,0.561738,0.097877,-0.09302
1927,0.50466,0.013087,-0.144634
1928,0.650685,-0.2045,-0.31717
1929,0.029406,-0.205898,-0.407095
1930,-0.134689,-0.248664,-0.425987
1931,-0.344819,-0.558648,-0.495525
1932,-0.489499,-0.673528,-0.59947
1933,-0.503419,-0.962026,-0.37728
1934,-0.327239,-0.659708,-0.203087
1935,-0.2814,-0.600631,-0.17099
1936,-0.168407,-0.410519,-0.177214
1937,0.106652,-0.093421,-0.125445
1938,0.291126,0.128908,-0.192989
1939,0.262671,0.156011,-0.323899
1940,-0.008891,0.224328,-0.429868
1941,0.014682,0.222066,-0.506425
1942,-0.335987,0.322876,-0.580159
1943,-0.223339,0.47627,-0.675276
1944,-0.270322,0.531109,-0.608476
1945,-0.313903,0.50485,-0.533814
1946,-0.236485,0.500353,-0.417766
1947,-0.17835,0.508407,-0.310541
1948,-0.000832,0.442681,-0.184789
1949,0.05873,0.017852,-0.01158
1950,0.068821,-0.079367,0.124007
1951,0.122732,-0.440721,0.076585
1952,0.262968,-1.710772,0.128014
1953,0.136969,-0.06748,0.359291
1954,-0.08241,0.311934,0.28255
1955,0.517056,-0.259419,-0.291649
1956,-0.135161,-0.964859,-0.761593
1957,-0.202573,-0.20814,-0.718864
1958,-0.275411,0.47501,-0.695213
1959,-0.327428,0.563545,-0.652501
1960,-0.250187,-0.12131,-0.789388
1961,0.134393,-0.132066,-0.682413
1962,0.286071,-0.113126,-0.597923
1963,0.070435,-0.163356,-0.496271
1964,-0.116913,0.044534,-0.326612
1965,-0.174237,0.143597,-0.313042
1966,-0.184021,0.382099,-0.467768
1967,-0.136231,0.425454,-0.334087
1968,-0.043183,0.143495,-0.306715
1969,0.149333,-0.131868,-0.350616
1970,0.186636,-0.103368,-0.321917
1971,0.049893,0.146603,-0.18682
1972,0.050589,0.146386,-0.057719
1973,0.240201,0.104685,-0.089346
1974,0.370292,0.042238,-0.061226
1975,0.364781,0.052594,-0.004804
1976,0.25401,0.156563,-0.030148
1977,0.316291,0.1289,-0.095059
1978,0.418038,-0.0223,-0.157124
1979,0.372157,-0.049148,-0.182842
1980,0.378723,-0.033965,-0.129651
1981,0.38012,-0.017679,-0.414817
1982,0.328067,-0.17993,-0.370419
1983,-0.104466,-0.103239,-0.503252
1984,-0.092381,-0.2945,-0.327063
1985,-0.481504,-0.775314,-0.405378
1986,-0.574165,-0.864062,-0.473977
1987,-0.609397,-1.015655,-0.258541
1988,-0.232513,-0.592239,-0.153489
1989,-0.192222,-0.52475,-0.175196
1990,-0.107783,-0.410798,-0.180855
1991,0.254941,0.199594,-0.186416
1992,0.26674,0.255567,-0.239222
1993,0.209355,0.24595,-0.330263
1994,-0.057789,0.224708,-0.485546
1995,-0.167888,0.26161,-0.533059
1996,-0.140363,0.293135,-0.580705
1997,-0.297074,0.609644,-0.587443
1998,-0.323975,0.644889,-0.581194
1999,-0.178748,0.507712,-0.433126
2000,-0.195919,0.463834,-0.24873
2001,0.110932,0.34988,-0.029194
2002,0.153581,0.190302,-0.003096
2003,0.090818,-0.240119,-0.123077
2004,0.205844,-0.918424,0.188532
2005,0.035627,-1.530709,0.210154
2006,0.060355,-0.15548,0.216714
2007,-0.044043,0.44263,0.44229
2008,0.656522,-0.740549,-0.590791
2009,-0.12686,-1.040854,-0.784929
2010,-0.213564,-0.336187,-0.577276
2011,-0.113118,0.387622,-0.799503
2012,-0.160473,0.397154,-0.646957
2013,-0.157015,0.094674,-0.778114
2014,0.26953,-0.272681,-0.652085
2015,0.367612,-0.086893,-0.554383
2016,0.105357,0.067726,-0.534189
2017,-0.148516,0.056568,-0.368836
2018,-0.359861,-0.034517,-0.428705
2019,-0.352447,0.269159,-0.402187
2020,-0.278619,0.32702,-0.443869
2021,-0.066399,0.001699,-0.343304
2022,0.040914,-0.036873,-0.341601
2023,0.150066,-0.020466,-0.339009
2024,0.011789,0.236201,-0.212115
2025,0.056775,0.188033,-0.130044
2026,0.134929,0.150792,-0.113312
2027,0.386573,0.055612,-0.020689
2028,0.437316,-0.01369,-0.008329
2029,0.416688,-0.017494,-0.00561
2030,0.405188,0.011178,-0.154635
2031,0.431604,0.046605,-0.188957
2032,0.462994,0.061929,-0.224111
2033,0.268427,-0.034246,-0.240561
2034,0.334349,-0.034899,-0.498766
2035,0.585932,-0.172009,-0.396937
2036,-0.127074,-0.241358,-0.369568
2037,-0.161615,-0.408061,-0.271103
2038,-0.34443,-0.606014,-0.41641
2039,-0.385121,-0.852331,-0.392056
2040,-0.259279,-0.782592,-0.271211
2041,-0.221181,-0.594673,-0.115834
2042,-0.179649,-0.48139,-0.19561
2043,-0.099166,-0.324061,-0.207898
2044,0.234186,0.162147,-0.203272
2045,0.239616,0.175962,-0.265444
2046,0.114704,0.151937,-0.382186
2047,-0.011043,0.191365,-0.496698
2048,0.028197,0.229788,-0.636438
2049,-0.11636,0.314802,-0.680264
2050,-0.368165,0.673108,-0.617596
2051,-0.386285,0.677717,-0.567248
2052,-0.317478,0.618779,-0.523118
2053,-0.228928,0.450911,-0.311702
2054,0.007197,0.327881,-0.053816
2055,0.15118,0.019419,0.161914
2056,0.218048,-0.121433,-0.046494
2057,0.376691,-0.948469,0.009459
2058,0.337903,-1.388146,0.294487
2059,0.179899,-0.756463,0.448413
2060,-0.417906,-0.29195,0.235069
2061,0.351813,-1.260509,-0.43361
2062,-0.148415,-1.40184,-0.804509
2063,0.036288,0.068557,-0.691316
2064,0.005306,0.58739,-0.845383
2065,-0.373342,0.716877,-0.662519
2066,-0.188804,-0.212039,-0.937304
2067,0.033015,-0.469148,-0.771944
2068,0.299342,-0.801284,-0.613225
2069,0.094837,-0.179661,-0.428035
2070,0.085494,-0.16727,-0.401533
2071,-0.198876,0.268826,-0.311237
2072,-0.251083,0.473065,-0.430534
2073,-0.253593,0.484391,-0.39905
2074,-0.029593,0.226931,-0.346575
2075,0.255877,-0.094348,-0.421448
2076,0.274484,-0.077178,-0.347249
2077,0.009296,0.249575,-0.172055
2078,-0.098459,0.342052,-0.106037
2079,-0.013482,0.073085,-0.082431
2080,0.216636,-0.006266,-0.174343
2081,0.33175,0.03015,-0.176629
2082,0.16636,0.05394,-0.063471
2083,0.191631,-0.103437,-0.149731
2084,0.374909,0.00711,-0.243854
2085,0.511881,-0.018976,-0.143412
2086,0.503252,-0.042018,-0.097845
2087,0.454458,-0.06902,-0.399668
2088,0.407888,-0.094385,-0.337392
2089,-0.100304,-0.021882,-0.510107
2090,-0.134579,-0.260982,-0.342911
2091,-0.367609,-0.587018,-0.487021
2092,-0.540342,-0.696118,-0.401678
2093,-0.377663,-0.775049,-0.268129
2094,-0.306743,-0.702295,-0.22448
2095,-0.287588,-0.590009,-0.228956
2096,-0.212367,-0.431788,-0.198145
2097,-0.113753,-0.262923,-0.189112
2098,0.142816,0.143682,-0.272323
2099,0.15321,0.195051,-0.341778
2100,0.131358,0.157939,-0.4112
2101,-0.0085,0.177896,-0.46087
2102,-0.05378,0.226469,-0.511121
2103,-0.163492,0.33593,-0.618905
2104,-0.257893,0.531232,-0.629482
2105,-0.238396,0.551274,-0.645495
2106,-0.239642,0.557454,-0.635795
2107,-0.240994,0.561987,-0.566749
2108,-0.1669,0.491419,-0.455357
2109,-0.098584,0.429428,-0.296314
2110,0.000438,-0.16139,0.310923
2111,0.241564,-0.494809,-0.171577
2112,0.404139,-1.138711,-0.009698
2113,0.311311,-1.335467,0.146599
2114,0.193022,-0.63219,0.437117
2115,-0.086463,-0.010533,0.655503
2116,0.809001,-0.887181,-0.316658
2117,-0.061631,-1.375767,-0.601715
2118,-0.222859,-0.884826,-0.519273
2119,-0.261091,0.504748,-0.658399
2120,-0.431928,0.932987,-0.592075
2121,-0.304622,0.593517,-0.683986
2122,-0.151896,0.209889,-0.896451
2123,0.280228,-0.716941,-0.620013
2124,0.360493,-0.945605,-0.521593
2125,0.252942,-0.825788,-0.449761
2126,-0.255933,0.34088,-0.312223
2127,-0.334173,0.51123,-0.373933
2128,-0.213578,0.538544,-0.477696
2129,-0.057436,0.347821,-0.447079
2130,0.156421,0.134899,-0.268795
2131,0.193686,-0.070711,-0.338969
2132,0.019077,0.177561,-0.283319
2133,-0.01152,0.21126,-0.084292
2134,0.088029,0.062636,-0.080683
2135,0.219438,0.05474,-0.15633
2136,0.299334,0.083303,-0.159848
2137,0.38841,0.130601,0.002275
2138,0.253947,0.119582,-0.101021
2139,0.253555,0.055984,-0.10282
2140,0.338854,0.134865,-0.21541
2141,0.442396,0.112287,-0.175857
2142,0.369044,0.11244,-0.129159
2143,0.464562,0.008101,-0.487882
2144,0.089328,-0.095676,-0.430965
2145,-0.181863,-0.224483,-0.425043
2146,-0.411413,-0.670599,-0.524358
2147,-0.621877,-1.006593,-0.555976
2148,-0.48848,-1.187867,-0.360526
2149,-0.305529,-0.730532,-0.182433
2150,-0.304865,-0.647621,-0.225358
2151,-0.159163,-0.47286,-0.173277
2152,0.149664,-0.091821,-0.177936
2153,0.294237,0.117557,-0.215596
2154,0.283631,0.107238,-0.28288
2155,0.144574,0.066712,-0.391769
2156,0.001298,0.063825,-0.467792
2157,-0.09531,0.116271,-0.530638
2158,-0.259502,0.459927,-0.6945
2159,-0.386391,0.737789,-0.682095
2160,-0.357063,0.839888,-0.610628
2161,-0.214565,0.715728,-0.504406
2162,-0.094619,0.513743,-0.182681
2163,0.084215,0.434657,0.029047
2164,0.188657,0.175601,0.017477
2165,0.394761,-1.017243,0.0688
2166,0.388711,-1.971073,0.142787
2167,0.137676,-1.611994,0.245475
2168,0.212302,-0.238693,0.355392
2169,0.005396,0.851568,0.695378
2170,0.552722,-0.404773,-0.717082
2171,-0.089688,-1.168629,-0.92476
2172,-0.508106,-0.677325,-0.600814
2173,-0.645716,0.225074,-0.572711
2174,-0.10424,0.078361,-0.659428
2175,0.104056,-0.311434,-0.834127
2176,0.362667,-0.151356,-0.557434
2177,0.210603,0.041627,-0.53138
2178,-0.047547,0.064679,-0.471449
2179,-0.20577,3.30E-05,-0.428411
2180,-0.21819,0.166685,-0.455595
2181,-0.146712,0.260648,-0.430456
2182,-0.109653,0.387204,-0.332455
2183,-0.111781,0.215147,-0.298123
2184,-0.115223,0.071213,-0.341526
2185,-0.025483,-0.013293,-0.326601
2186,-0.010614,0.159246,-0.208454
2187,0.059226,0.1111,-0.116211
2188,0.414843,0.083593,-0.082931
2189,0.550188,0.105355,-0.075681
2190,0.498146,0.112752,-0.047917
2191,0.360859,0.046004,-0.09935
2192,0.466829,-0.008588,-0.166572
2193,0.473364,0.010574,-0.227133
2194,0.440802,0.020978,-0.098749
2195,0.722872,-0.101274,-0.395347
2196,0.722699,-0.100957,-0.391015
2197,-0.132331,-0.066032,-0.49758
2198,-0.246576,-0.577223,-0.394132
2199,-0.47468,-0.864098,-0.490756
2200,-0.682041,-0.97223,-0.564436
2201,-0.375591,-0.758815,-0.310814
2202,-0.229656,-0.62142,-0.207908
2203,-0.185537,-0.608075,-0.184872
2204,-0.025772,-0.322935,-0.209454
2205,0.16035,0.049782,-0.248143
2206,0.232469,0.17142,-0.288916
2207,0.129321,0.161646,-0.422708
2208,0.01985,0.146605,-0.503001
2209,-0.169835,0.220467,-0.608261
2210,-0.210103,0.388625,-0.748266
2211,-0.328614,0.642937,-0.704483
2212,-0.409543,0.774672,-0.645118
2213,-0.313369,0.587183,-0.580311
2214,-0.237911,0.433471,-0.432534
2215,-0.139588,0.38582,-0.292959
2216,0.202657,0.111217,0.033273
2217,0.115883,-0.119131,0.050256
2218,0.069681,-0.20377,0.046564
2219,0.410692,-1.543674,0.147999
2220,0.294513,-1.303774,0.224094
2221,-0.326697,-0.218655,0.414565
2222,0.589215,-0.854042,-0.203026
2223,0.222217,-1.166674,-0.574759
2224,-0.110946,-0.533971,-0.24803
2225,-0.038299,0.567453,-0.78411
2226,-0.175183,0.885522,-0.733509
2227,-0.327314,0.418947,-0.675258
2228,-0.14879,-0.117192,-0.928317
2229,0.367718,-0.541391,-0.72682
2230,0.411059,-0.775839,-0.667608
2231,-0.03253,-0.170178,-0.428245
2232,-0.136141,0.133418,-0.253444
2233,-0.296388,0.366411,-0.441321
2234,-0.276353,0.502992,-0.454558
2235,-0.216716,0.412274,-0.451663
2236,0.068721,-0.032251,-0.406625
2237,0.248397,-0.076776,-0.409133
2238,0.222675,0.013148,-0.349526
2239,-0.076872,0.213928,-0.186754
2240,0.012337,0.111094,-0.122984
2241,0.092842,0.045293,-0.09648
2242,0.427036,-0.011552,-0.09463
2243,0.427726,0.018822,-0.099694
2244,0.330041,0.087597,-0.108886
2245,0.209109,0.031235,-0.228152
2246,0.391569,0.061929,-0.292076
2247,0.580852,0.076098,-0.256552
2248,0.604128,0.033473,-0.113666
2249,0.675684,-0.076219,-0.355458
2250,0.337587,-0.021763,-0.565751
2251,0.018029,-0.006916,-0.62277
2252,-0.517159,-0.946887,-0.523255
2253,-0.754678,-0.997955,-0.604163
2254,-0.472549,-0.666839,-0.411726
2255,-0.267632,-0.623723,-0.274508
2256,-0.212776,-0.568307,-0.19198
2257,-0.226266,-0.49903,-0.170146
2258,-0.021474,-0.244394,-0.250015
2259,0.077209,-0.07016,-0.300266
2260,0.152546,0.197874,-0.247455
2261,0.093512,0.146307,-0.290804
2262,-0.046728,0.127779,-0.430405
2263,-0.086285,0.180778,-0.511554
2264,-0.108501,0.337942,-0.57708
2265,-0.176317,0.417035,-0.606152
2266,-0.207543,0.48484,-0.618778
2267,-0.215433,0.574643,-0.518189
2268,-0.175721,0.512725,-0.484573
2269,-0.138725,0.451249,-0.416378
2270,0.098389,0.174569,0.002935
2271,0.117992,0.182253,0.013524
2272,0.318984,-0.125321,-0.185929
2273,0.444535,-0.973842,-0.050817
2274,0.358633,-1.191373,0.042938
2275,0.056453,-0.61273,0.449603
2276,-0.12926,0.106979,0.425755
2277,-0.462773,0.117591,0.475318
2278,0.336191,-1.572105,-0.844065
2279,-0.305996,-0.80025,-0.761613
2280,-0.206362,-0.234631,-0.584422
2281,-0.289687,0.413485,-0.718791
2282,-0.277861,0.052166,-0.80108
2283,-0.180013,-0.324926,-0.876206
2284,0.365946,-0.398066,-0.632996
2285,0.249347,-0.124378,-0.656633
2286,0.119527,0.017662,-0.565632
2287,-0.177211,0.022592,-0.38653
2288,-0.324403,0.250245,-0.392785
2289,-0.275088,0.35596,-0.367229
2290,-0.125766,0.371656,-0.42177
2291,0.023959,0.130914,-0.300299
2292,0.147146,-0.003183,-0.318903
2293,0.178376,0.097933,-0.2979
2294,-0.001272,0.336424,-0.157862
2295,0.020381,0.26304,-0.08261
2296,0.298859,0.035678,-0.144656
2297,0.433961,0.046544,-0.156956
2298,0.463477,0.022446,-0.103996
2299,0.159911,-0.027858,-0.157446
2300,0.314496,-0.075416,-0.220385
2301,0.460318,-0.023507,-0.190871
2302,0.545359,-0.065744,-0.135578
2303,0.406852,-0.056416,-0.182123
2304,0.336633,-0.031976,-0.357545
2305,0.258474,-0.161555,-0.339364
2306,-0.030721,-0.041804,-0.612487
2307,-0.021346,-0.374207,-0.421517
2308,-0.247793,-0.643472,-0.573847
2309,-0.686054,-0.911735,-0.406933
2310,-0.621651,-0.793338,-0.332356
2311,-0.547619,-0.681986,-0.312603
2312,-0.216099,-0.449433,-0.135425
2313,-0.070974,-0.212643,-0.175488
2314,0.061742,0.031355,-0.221021
2315,0.352843,0.345497,-0.341969
2316,0.292766,0.293767,-0.410275
2317,0.074169,0.19499,-0.452097
2318,-0.116267,0.209226,-0.579807
2319,-0.193598,0.276767,-0.627596
2320,-0.383076,0.585829,-0.524502
2321,-0.250667,0.574564,-0.512527
2322,-0.18873,0.541168,-0.479914
2323,-0.085446,0.380556,-0.349673
2324,0.092905,0.231681,-0.138573
2325,0.202342,0.118154,-0.01219
2326,0.193184,-0.061469,-0.177747
2327,0.259379,-0.959007,-0.03345
2328,0.311385,-1.515727,0.077
2329,0.199474,-0.852571,0.282772
2330,-0.26619,0.264477,0.606709
2331,-0.235681,0.129232,0.018991
2332,-0.151543,-1.299668,-1.180235
2333,-0.393704,-0.290909,-0.337193
2334,-0.282336,0.591437,-0.712926
2335,-0.257838,0.530594,-0.726374
2336,-0.148922,-0.243401,-0.883549
2337,0.180095,-0.559851,-0.703667
2338,0.321477,-0.334185,-0.551733
2339,0.10777,-0.058501,-0.524832
2340,-0.008988,0.065779,-0.48021
2341,-0.234413,0.154939,-0.426837
2342,-0.275452,0.354538,-0.411472
2343,-0.196592,0.398715,-0.393237
2344,-0.115594,0.312416,-0.391537
2345,0.10268,0.006517,-0.399081
2346,0.101013,0.011895,-0.377251
2347,0.045895,0.084508,-0.266335
2348,0.009402,0.201237,-0.167447
2349,0.099037,0.106681,-0.127947
2350,0.326275,0.012457,-0.138064
2351,0.432661,0.053557,-0.117484
2352,0.351232,0.031799,-0.062541
2353,0.227089,0.006315,-0.170337
2354,0.3373,-0.005966,-0.199306
2355,0.383475,0.018942,-0.212883
2356,0.423326,0.007951,-0.217522
2357,0.610923,-0.056592,-0.300729
2358,0.748901,-0.075114,-0.336695
2359,0.463543,0.007545,-0.551148
2360,-0.237702,-0.632854,-0.344033
2361,-0.436357,-0.881927,-0.391877
2362,-0.597798,-0.862514,-0.452261
2363,-0.296118,-0.70859,-0.233842
2364,-0.234814,-0.571887,-0.194447
2365,-0.183107,-0.559361,-0.238015
2366,-0.120666,-0.348113,-0.221753
2367,0.05633,-0.021109,-0.275947
2368,0.122952,0.110575,-0.291165
2369,0.058717,0.093189,-0.344631
2370,-0.012079,0.099503,-0.466226
2371,-0.18092,0.143584,-0.593287
2372,-0.1179,0.260184,-0.670577
2373,-0.140216,0.327024,-0.689045
2374,-0.346569,0.660004,-0.648174
2375,-0.32039,0.684147,-0.608466
2376,-0.277101,0.610993,-0.56458
2377,-0.165775,0.368762,-0.390773
2378,-0.066293,0.318133,-0.260064
2379,0.139613,0.110781,0.016177
2380,0.364251,-0.172063,-0.196271
2381,0.427701,-0.59691,-0.103378
2382,0.43945,-1.125992,0.090361
2383,0.063374,-1.032514,0.263605
2384,0.034648,-0.772388,-0.079348
2385,0.272429,-1.186205,-0.471112
2386,-0.200937,-1.50368,-0.913936
2387,0.070592,0.699123,-0.815818
2388,0.045891,0.701656,-0.80886
2389,-0.259883,0.707228,-0.685444
2390,-0.0595,-0.259167,-0.886795
2391,-0.043594,-0.244356,-0.866364
2392,0.367944,-0.623466,-0.728507
2393,-0.032322,-0.084385,-0.445958
2394,-0.118602,0.105363,-0.308036
2395,-0.390723,0.361618,-0.41178
2396,-0.317126,0.43728,-0.440399
2397,-0.322544,0.448096,-0.41159
2398,-0.085764,0.200918,-0.363926
2399,0.304726,-0.050032,-0.431237
2400,0.341839,-0.046275,-0.400088
2401,0.17857,0.236992,-0.286323
2402,0.037619,0.206562,-0.184084
2403,0.080806,0.134811,-0.142651
2404,0.223251,0.100839,-0.150231
2405,0.280645,0.040793,-0.089733
2406,0.199318,-0.035727,-0.067983
2407,0.032137,-0.162991,-0.320608
2408,0.223844,-0.084639,-0.252492
2409,0.367875,-0.010958,-0.252868
2410,0.495155,-0.015771,-0.199293
2411,0.565072,-0.065044,-0.323715
2412,0.705105,-0.144707,-0.303408
2413,0.017678,-0.10644,-0.545833
2414,-0.056193,-0.339202,-0.438235
2415,-0.411416,-0.647004,-0.481365
2416,-0.567554,-0.617389,-0.541861
2417,-0.495721,-0.720205,-0.412779
2418,-0.453079,-0.682076,-0.321068
2419,-0.328589,-0.599905,-0.250572
2420,-0.18826,-0.415046,-0.176928
2421,-0.08074,-0.21391,-0.18911
2422,0.165113,0.215035,-0.253351
2423,0.220988,0.241118,-0.359415
2424,0.203736,0.182118,-0.415985
2425,0.013153,0.249855,-0.511575
2426,-0.063477,0.278057,-0.62214
2427,-0.117147,0.289655,-0.670976
2428,-0.359897,0.428238,-0.584591
2429,-0.36275,0.43285,-0.545221
2430,-0.311403,0.401357,-0.535076
2431,-0.232303,0.386631,-0.380942
2432,0.054268,0.246718,-0.123555
2433,0.080118,0.259168,-0.109443
2434,0.260022,-0.061534,-0.079568
2435,0.411305,-1.207607,-0.029818
2436,0.340085,-1.535003,0.064387
2437,0.074787,-1.10943,0.307731
2438,-0.249629,0.23443,0.426647
2439,-0.24707,0.23866,0.432833
2440,0.339358,-1.110275,-0.600241
2441,-0.054711,-1.293747,-0.839297
2442,-0.198173,-0.140684,-0.660171
2443,-0.31057,0.655146,-0.733999
2444,-0.295557,0.136069,-0.803801
2445,-0.29173,0.143221,-0.792786
2446,0.181586,-0.110896,-0.707959
2447,0.220783,-0.402746,-0.723566
2448,0.111038,-0.426919,-0.614776
2449,-0.117493,0.089006,-0.373188
2450,-0.156474,0.36316,-0.389353
2451,-0.185753,0.40814,-0.416099
2452,-0.145617,0.405407,-0.382176
2453,-0.064938,0.072726,-0.404965
2454,0.041196,-0.04472,-0.47964
2455,0.233194,0.004027,-0.276721
2456,-0.009019,0.194387,-0.140911
2457,-0.00545,0.186174,-0.09066
2458,0.179755,0.182601,-0.238445
2459,0.345684,0.018303,-0.123802
2460,0.392677,-0.097049,-0.0826
2461,0.073018,0.010386,-0.205461
2462,0.1117,-0.020766,-0.178883
2463,0.249347,-0.078469,-0.201732
2464,0.435678,-0.015006,-0.179342
2465,0.409357,-0.055436,-0.157314
2466,0.619205,-0.108992,-0.363028
2467,0.208192,-0.092501,-0.604398
2468,-0.064109,-0.179715,-0.482625
2469,-0.138651,-0.356237,-0.44991
2470,-0.52442,-0.649049,-0.46199
2471,-0.605657,-0.706013,-0.461697
2472,-0.566063,-0.753728,-0.477411
2473,-0.328781,-0.543132,-0.27397
2474,-0.199952,-0.486233,-0.278776
2475,-0.138977,-0.434836,-0.277226
2476,0.110563,0.023208,-0.225244
2477,-0.023356,0.265734,-0.296084
2478,0.044999,0.276072,-0.397165
2479,0.050674,0.09481,-0.404297
2480,-0.035561,0.052746,-0.546073
2481,-0.14761,0.180701,-0.604127
2482,-0.289736,0.38816,-0.587941
2483,-0.306582,0.514642,-0.555722
2484,-0.202681,0.478553,-0.546508
2485,-0.150996,0.445518,-0.487005
2486,0.049694,0.309998,-0.282513
2487,0.072172,0.320508,-0.272421
2488,0.231917,0.055076,0.054018
2489,0.331055,-0.380196,-0.221981
2490,0.328283,-0.380905,-0.222602
2491,0.31608,-1.457232,0.207278
2492,0.096635,0.115596,0.229779
2493,0.095337,0.120163,0.23681
2494,0.214168,-0.249914,-0.469325
2495,0.397589,-1.447538,-0.99146
2496,-0.105113,-1.239148,-0.968684
2497,-0.429452,0.388643,-0.616655
2498,-0.153893,0.12928,-0.678539
2499,-0.070035,-0.247911,-0.804332
2500,0.232677,-0.268421,-0.803673
2501,0.304917,0.129684,-0.647431
2502,0.218396,0.083661,-0.676637
2503,-0.224764,-0.125226,-0.457071
2504,-0.303713,0.00713,-0.411344
2505,-0.283947,0.133164,-0.440327
2506,-0.255963,0.406284,-0.45688
2507,-0.234338,0.329821,-0.386004
2508,-0.175362,0.168142,-0.381434
2509,0.097517,-0.13756,-0.493916
2510,0.106313,0.199498,-0.336661
2511,0.100848,0.272017,-0.21557
2512,0.197403,0.094638,-0.14694
2513,0.316813,-0.00851,-0.151221
2514,0.346207,-0.063965,-0.099158
2515,0.136423,-0.018525,-0.120994
2516,0.14543,-0.019348,-0.242256
2517,0.341236,-0.076793,-0.274621
2518,0.496043,-0.064693,-0.278806
2519,0.456831,-0.068925,-0.134688
2520,0.545942,-0.023056,-0.449665
2521,0.427694,-0.182851,-0.525471
2522,-0.092361,-0.275014,-0.526546
2523,-0.170887,-0.427674,-0.423015
2524,-0.517901,-0.571696,-0.515445
2525,-0.517119,-0.584504,-0.48236
2526,-0.493024,-0.660389,-0.477237
2527,-0.164566,-0.608811,-0.283361
2528,-0.051009,-0.460875,-0.352186
2529,-0.073711,-0.47928,-0.391266
2530,0.128548,0.007854,-0.276094
2531,0.183976,0.050652,-0.337
2532,0.172375,0.032428,-0.367599
2533,0.004723,0.114425,-0.487661
2534,-0.098405,0.159505,-0.558898
2535,-0.094328,0.147311,-0.579636
2536,-0.29348,0.429389,-0.610224
2537,-0.302702,0.584361,-0.616324
2538,-0.286992,0.583057,-0.623026
2539,-0.156754,0.437252,-0.556613
2540,-0.096581,0.323768,-0.429533
2541,-0.048952,0.269768,-0.318743
2542,0.051558,0.154845,-0.082185
2543,0.080971,-0.296087,-0.015034
2544,0.21773,-0.444324,-0.249447
2545,0.418126,-1.168827,-0.135258
2546,0.321599,-1.249294,0.174447
2547,0.174966,-0.32443,0.417443
2548,0.260542,-0.204854,-0.260775
2549,0.424753,-0.885651,-0.519396
2550,-0.005581,-0.949114,-0.755449
2551,-0.269924,-0.082394,-0.624852
2552,-0.297786,0.333896,-0.718599
2553,-0.331235,0.160054,-0.475456
2554,-0.065452,0.01929,-0.770345
2555,0.048355,0.07255,-0.820065
2556,0.139586,0.04088,-0.825545
2557,-0.119837,-0.468883,-0.563765
2558,-0.433977,-0.083826,-0.303848
2559,-0.159071,0.203541,-0.431073
2560,-0.00115,0.403059,-0.444121
2561,0.033254,0.464377,-0.419333
2562,0.138293,0.289636,-0.431226
2563,0.176023,0.0027,-0.420029
2564,0.130451,-0.064473,-0.372293
2565,-0.024662,0.09013,-0.304242
2566,0.079006,0.164949,-0.110825
2567,0.146517,0.1464,-0.145283
2568,0.212068,0.140516,-0.179713
2569,0.241745,0.104887,-0.074208
2570,0.203736,0.005039,-0.213933
2571,0.247753,0.001346,-0.364113
2572,0.124239,-0.139849,-0.12295
2573,0.075649,-0.106982,-0.202471
2574,0.177605,-0.115994,-0.188106
2575,0.225001,-0.080314,-0.10299
2576,0.477384,-0.069955,-0.477403
2577,0.707247,-0.146394,-0.477244
2578,-0.146091,-0.156672,-0.660282
2579,-0.362182,-0.428055,-0.414405
2580,-0.556413,-0.689433,-0.398555
2581,-0.659689,-0.649167,-0.49391
2582,-0.23801,-0.524366,-0.433007
2583,-0.155426,-0.397663,-0.259231
2584,-0.08459,-0.456839,-0.284347
2585,-0.02496,-0.411291,-0.288544
2586,-0.28561,-0.144276,-0.231595
2587,-0.017315,0.001882,-0.276649
2588,0.028456,0.070644,-0.358945
2589,0.023407,0.059924,-0.440075
2590,-0.04269,0.023688,-0.552471
2591,-0.126936,0.102388,-0.654289
2592,-0.234979,0.331231,-0.715667
2593,-0.307285,0.57888,-0.635801
2594,-0.239887,0.639107,-0.622891
2595,-0.1892,0.598595,-0.575183
2596,-0.067661,0.410095,-0.4517
2597,0.137935,0.157545,-0.041171
2598,0.159737,0.109244,0.004195
2599,0.123798,0.04268,-0.13777
2600,0.386955,-1.025504,-0.07469
2601,0.39131,-1.26057,-0.00495
2602,0.233952,-0.728935,0.271203
2603,-0.213401,0.161611,0.560608
2604,-0.111599,-0.069507,0.198552
2605,0.071031,-1.185814,-0.715387
2606,-0.130685,-0.736956,-0.618512
2607,-0.232812,-0.341164,-0.654823
2608,-0.417176,0.511644,-0.683417
2609,-0.243145,0.159807,-0.751386
2610,-0.118849,-0.09304,-0.831413
2611,0.229521,-0.10681,-0.759627
2612,0.296736,-0.354362,-0.779933
2613,-0.011573,-0.307283,-0.491956
2614,-0.19881,0.042372,-0.35709
2615,-0.200988,0.261431,-0.467105
2616,-0.223833,0.401426,-0.460853
2617,-0.175229,0.170109,-0.446816
2618,-0.127305,-0.00146,-0.438636
2619,-0.019796,-0.134561,-0.461672
2620,0.182494,0.040979,-0.345244
2621,0.025751,0.287056,-0.237365
2622,-0.008175,0.293388,-0.17758
2623,0.072904,0.094852,-0.174742
2624,0.269103,0.060187,-0.184904
2625,0.28372,0.063697,-0.168651
2626,0.066383,0.032493,-0.276945
2627,0.208304,-0.102139,-0.284793
2628,0.219038,-0.102623,-0.248221
2629,0.412343,-0.136815,-0.14957
2630,0.477905,-0.049578,-0.101241
2631,0.48117,-0.048983,-0.095489
2632,0.630169,-0.005904,-0.416336
2633,0.181453,0.160553,-0.814059
2634,0.165283,0.160842,-0.812364
2635,-0.299847,-0.29308,-0.60281
2636,-0.899577,-0.972005,-0.464456
2637,-0.930149,-0.981771,-0.506958
2638,-0.814071,-0.684306,-0.543116
2639,-0.335116,-0.546729,-0.188435
2640,-0.239022,-0.530893,-0.243725
2641,0.001597,-0.42418,-0.285812
2642,0.237534,0.016068,-0.151607
2643,0.211588,0.063916,-0.228751
2644,0.201433,0.07137,-0.325956
2645,-0.072878,0.143794,-0.426252
2646,-0.154466,0.096311,-0.514232
2647,-0.212192,0.275531,-0.690638
2648,-0.312961,0.394833,-0.646031
2649,-0.35346,0.488256,-0.61521
2650,-0.27672,0.606651,-0.547631
2651,-0.225959,0.553386,-0.522036
2652,-0.174171,0.399183,-0.463209
2653,0.145775,0.200265,-0.226224
2654,0.265039,0.0599,0.024693
2655,0.164651,-0.098244,-0.054043
2656,0.389421,-0.8282,-0.130593
2657,0.361074,-1.40822,-0.00555
2658,0.280293,-1.224046,0.061702
2659,-0.25066,-0.102506,0.460157
2660,0.271244,-0.537731,-0.202998
2661,0.353166,-0.926069,-0.455741
2662,0.025836,-0.719392,-0.591431
2663,-0.064678,0.136372,-0.791807
2664,-0.219191,0.439323,-0.73352
2665,-0.291094,0.196328,-0.728861
2666,-0.310861,-0.007212,-0.696057
2667,0.02773,-0.150496,-0.773016
2668,0.138463,-0.408117,-0.756424
2669,-0.049299,-0.35827,-0.448824
2670,-0.139187,-0.12094,-0.378642
2671,-0.161329,0.319982,-0.509159
2672,-0.142134,0.365712,-0.486746
2673,-0.121078,0.351399,-0.468022
2674,0.033021,0.101422,-0.457597
2675,0.141285,-0.001956,-0.41623
2676,0.14025,0.048672,-0.375859
2677,-0.067023,0.232357,-0.288855
2678,-0.16165,0.294564,-0.207527
2679,-0.098489,0.158727,-0.153449
2680,0.038067,0.118414,-0.266392
2681,0.236924,0.097582,-0.144459
2682,0.191485,0.02982,-0.120249
2683,0.15992,-0.08852,-0.210257
2684,0.274012,-0.147056,-0.141491
2685,0.345861,-0.069685,-0.138317
2686,0.519171,0.017374,-0.154491
2687,0.480019,0.001812,-0.2428
2688,0.606355,-0.102073,-0.307179
2689,0.161265,-0.036385,-0.718494
2690,-0.143943,-0.243344,-0.632277
2691,-0.152893,-0.375449,-0.609278
2692,-0.573846,-0.559589,-0.564252
2693,-0.751459,-0.70648,-0.607515
2694,-0.868857,-0.697602,-0.402391
2695,-0.500908,-0.628589,-0.11874
2696,-0.265845,-0.530333,-0.268606
2697,0.009426,-0.395818,-0.348108
2698,0.193322,-0.095801,-0.231763
2699,0.189275,0.037128,-0.330418
2700,0.099109,0.103763,-0.362689
2701,-0.092799,0.141271,-0.417091
2702,-0.102055,-0.015511,-0.491881
2703,-0.263981,-0.031753,-0.611358
2704,-0.271923,0.175027,-0.6903
2705,-0.306704,0.391596,-0.648947
2706,-0.287428,0.497008,-0.602108
2707,-0.222811,0.505931,-0.47087
2708,-0.125022,0.414538,-0.446996
2709,-0.000855,0.34766,-0.402725
2710,0.197137,0.189234,-0.109457
2711,0.260556,0.088374,0.005652
2712,0.22753,0.040727,-0.105261
2713,0.404715,-1.144847,0.014651
2714,0.245658,-1.300875,0.140673
2715,0.019214,-0.573658,0.221493
2716,-0.508688,-0.359555,-0.027628
2717,-0.083952,-1.627375,-0.934798
2718,-0.082408,-1.632735,-0.942645
2719,-0.094486,0.444982,-0.574404
2720,-0.172902,0.918797,-0.753367
2721,-0.258049,0.466141,-0.729032
2722,-0.312194,-0.172993,-0.889511
2723,0.21847,-0.56973,-0.827255
2724,0.225821,-0.566093,-0.761146
2725,0.008358,-0.242374,-0.525815
2726,-0.192299,0.218919,-0.465287
2727,-0.230269,0.277421,-0.478133
2728,-0.184583,0.311453,-0.548791
2729,-0.131189,0.176415,-0.484933
2730,-0.069052,0.123055,-0.404688
2731,0.121131,-0.029553,-0.381674
2732,0.138303,0.058278,-0.356324
2733,0.068534,0.154153,-0.289033
2734,-0.01111,0.188461,-0.235381
2735,0.10454,0.048456,-0.15615
2736,0.133546,0.056448,-0.176814
2737,0.12944,0.092338,-0.11615
2738,0.085664,0.085132,-0.14712
2739,0.05181,0.021838,-0.186505
2740,0.162526,-0.14497,-0.275503
2741,0.229191,-0.120064,-0.230976
2742,0.363859,-0.011568,-0.202856
2743,0.495146,-0.001503,-0.164614
2744,0.691538,0.000767,-0.355763
2745,0.676422,-0.034601,-0.417398
2746,-0.029424,-0.1045,-0.613777
2747,-0.227852,-0.446326,-0.515776
2748,-0.384367,-0.630216,-0.462762
2749,-0.746179,-0.826585,-0.583089
2750,-0.681023,-0.613651,-0.442105
2751,-0.570475,-0.543476,-0.356957
2752,-0.272551,-0.463425,-0.322396
2753,-0.010282,-0.298431,-0.249206
2754,0.078677,-0.174158,-0.226231
2755,0.113797,0.094654,-0.326278
2756,-0.006432,0.161908,-0.413838
2757,0.047273,0.114669,-0.435316
2758,-0.008284,0.040773,-0.525043
2759,-0.237152,0.16335,-0.653274
2760,-0.227039,0.152699,-0.673698
2761,-0.357585,0.361863,-0.600625
2762,-0.311204,0.44136,-0.59214
2763,-0.207641,0.407396,-0.509628
2764,-0.089852,0.335189,-0.424323
2765,0.023332,0.263913,-0.265522
2766,0.142093,0.167109,-0.060751
2767,0.156741,0.0563,-0.044535
2768,0.422655,-0.865947,-0.135456
2769,0.356944,-1.264701,-0.11152
2770,0.245656,-1.102818,0.044827
2771,-0.221473,0.150116,0.398216
2772,-0.180834,-0.081808,0.179023
2773,0.436713,-0.859997,-0.540757
2774,-0.162497,-0.793473,-0.507972
2775,-0.246136,-0.401938,-0.486596
2776,-0.297617,0.528942,-0.617239
2777,-0.193941,0.30397,-0.743233
2778,-0.148969,-0.145565,-0.918425
2779,0.173493,-0.302049,-0.74706
2780,0.204423,-0.419864,-0.712298
2781,0.08352,-0.428935,-0.627267
2782,-0.267068,-0.026508,-0.424283
2783,-0.305643,0.102118,-0.489562
2784,-0.28779,0.166196,-0.525476
2785,-0.13358,0.29091,-0.502288
2786,-0.093415,0.135212,-0.486984
2787,-0.05496,0.046455,-0.483366
2788,0.063194,0.025359,-0.395835
2789,-0.030251,0.250803,-0.308088
2790,-0.071861,0.289326,-0.265748
2791,-0.026923,0.108344,-0.148048
2792,0.138566,0.088524,-0.17187
2793,0.205477,0.07139,-0.149223
2794,0.175963,-0.005981,-0.084324
2795,0.152011,-0.047118,-0.253015
2796,0.20989,-0.084939,-0.266086
2797,0.195013,-0.007068,-0.185676
2798,0.314375,-0.057908,-0.225254
2799,0.302252,0.012099,-0.211551
2800,0.589211,-0.136666,-0.308872
2801,0.313602,-0.049701,-0.630713
2802,-0.027973,-0.095382,-0.596871
2803,-0.308913,-0.318142,-0.536813
2804,-0.534682,-0.469638,-0.41556
2805,-0.622053,-0.598141,-0.519918
2806,-0.576036,-0.668115,-0.50709
2807,-0.489563,-0.649237,-0.233507
2808,-0.18881,-0.501194,-0.270107
2809,-0.01935,-0.424207,-0.316085
2810,0.062902,-0.222585,-0.26867
2811,0.039335,-0.056762,-0.267909
2812,-0.014228,0.02708,-0.356205
2813,0.066914,0.025287,-0.433722
2814,-0.0371,-0.07468,-0.560564
2815,-0.16807,0.102501,-0.701794
2816,-0.237438,0.297059,-0.66743
2817,-0.308957,0.408951,-0.629326
2818,-0.402957,0.561903,-0.574218
2819,-0.078877,0.453125,-0.517534
2820,-0.054471,0.463596,-0.511601
2821,0.051686,0.298923,-0.217711
2822,0.095329,0.094036,-0.006496
2823,0.087386,0.048268,-0.070989
2824,0.280315,-0.586994,-0.151034
2825,0.340647,-1.404191,-0.190866
2826,0.263847,-1.325285,-0.139561
2827,-0.151476,-0.224183,0.389855
2828,0.115741,-0.508646,-0.20962
2829,0.358579,-0.784392,-0.283307
2830,0.079103,-0.87501,-0.707802
2831,-0.065744,0.056997,-0.875001
2832,-0.260747,0.472452,-0.854954
2833,-0.452331,0.451659,-0.736985
2834,-0.281876,-0.097506,-0.946143
2835,-0.108855,-0.181024,-0.828811
2836,0.225538,-0.363172,-0.739874
2837,-0.004396,-0.313272,-0.555917
2838,-0.065195,-0.096632,-0.495022
2839,-0.207612,0.141475,-0.465873
2840,-0.232508,0.198287,-0.523959
2841,-0.203164,0.191447,-0.517573
2842,-0.055393,0.077183,-0.436903
2843,0.022333,0.002574,-0.452718
2844,0.070829,0.026338,-0.439215
2845,0.031296,0.179165,-0.293444
2846,-0.080317,0.160641,-0.240855
2847,-0.06317,0.117918,-0.195348
2848,0.113573,0.075955,-0.24511
2849,0.198078,0.050401,-0.181865
2850,0.190596,0.055589,-0.170779
2851,0.019429,0.000977,-0.252876
2852,0.142137,-0.117878,-0.235441
2853,0.219858,-0.068907,-0.258682
2854,0.456724,0.033215,-0.208562
2855,0.401654,-0.009058,-0.113699
2856,0.310338,-0.091881,-0.40236
2857,0.671069,-0.131995,-0.312025
2858,0.072404,-0.006829,-0.734437
2859,-0.144675,-0.203001,-0.64536
2860,-0.544468,-0.439474,-0.484666
2861,-0.764369,-0.871174,-0.517905
2862,-0.779514,-0.711203,-0.583286
2863,-0.628947,-0.628257,-0.230178
2864,-0.313314,-0.519357,-0.166117
2865,-0.106742,-0.382152,-0.342684
2866,0.045368,-0.218929,-0.279735
2867,0.158638,-0.003569,-0.27327
2868,0.076705,0.102471,-0.332513
2869,0.014182,0.105405,-0.374211
2870,0.021657,-0.013897,-0.50622
2871,-0.141417,-0.074706,-0.557734
2872,-0.304333,0.097756,-0.667713
2873,-0.350224,0.332705,-0.672493
2874,-0.384202,0.351624,-0.595567
2875,-0.376996,0.404086,-0.596513
2876,-0.189674,0.3517,-0.517017
2877,-0.137862,0.368429,-0.472413
2878,-0.035965,0.298305,-0.353641
2879,0.126467,0.104868,-0.062509
2880,0.108931,-0.011778,0.016603
2881,0.196109,-0.350876,-0.133832
2882,0.336103,-1.411908,-0.042747
2883,0.257798,-1.312676,-0.011472
2884,-0.150578,-0.28764,0.380263
2885,0.422189,-0.782044,-0.516103
2886,-0.028624,-1.020369,-0.80409
2887,-0.237454,-0.261468,-0.551094
2888,-0.179224,0.14345,-0.690832
2889,-0.385963,0.49932,-0.631289
2890,-0.169857,-0.30292,-0.934656
2891,-0.023354,-0.297654,-0.945538
2892,0.120614,-0.306332,-0.859281
2893,-0.082235,-0.378554,-0.645406
2894,-0.198406,-0.040393,-0.43124
2895,-0.16311,0.100982,-0.382035
2896,-0.236171,0.29377,-0.560379
2897,-0.200664,0.28096,-0.513595
2898,-0.170963,0.247585,-0.472268
2899,0.029895,-0.068538,-0.465515
2900,0.10211,-0.059318,-0.441965
2901,0.061553,0.047684,-0.367307
2902,-0.075896,0.189734,-0.258059
2903,-0.016454,0.088865,-0.200904
2904,0.032599,0.068267,-0.172649
2905,0.158661,0.001619,-0.151137
2906,0.109012,-0.067796,-0.167113
2907,0.053266,-0.050843,-0.24265
2908,0.06622,-0.12585,-0.306092
2909,0.203041,-0.036535,-0.286705
2910,0.344319,0.041584,-0.313256
2911,0.405903,0.072581,-0.225947
2912,0.552623,0.058495,-0.300312
2913,0.266333,-0.037841,-0.602198
2914,-0.019028,-0.24242,-0.474114
2915,-0.292727,-0.526015,-0.555491
2916,-0.646746,-0.585256,-0.617415
2917,-0.722041,-0.557503,-0.620783
2918,-0.503998,-0.583724,-0.28319
2919,-0.461864,-0.545067,-0.287967
2920,-0.298238,-0.466239,-0.313097
2921,-0.059898,-0.300296,-0.201197
2922,0.00427,-0.187456,-0.239192
2923,0.075418,-0.048827,-0.328266
2924,0.046107,0.091651,-0.422269
2925,0.004153,0.101979,-0.41726
2926,-0.157278,0.078673,-0.508811
2927,-0.170536,0.047328,-0.588866
2928,-0.231762,0.072442,-0.613277
2929,-0.375625,0.251025,-0.615339
2930,-0.332998,0.277043,-0.605978
2931,-0.339457,0.301819,-0.591188
2932,-0.334417,0.276988,-0.501056
2933,-0.224478,0.21218,-0.444635
2934,-0.127362,0.21501,-0.369291
2935,0.079856,0.091924,-0.193215
2936,0.1754,-0.135557,-0.066113
2937,0.176715,-0.390861,-0.123572
2938,0.192931,-1.23451,-0.094148
2939,0.111478,-1.016857,0.138059
2940,0.010903,-0.605238,0.36303
2941,0.293029,-0.413832,-0.291581
2942,-0.208905,-0.605446,-0.503435
2943,-0.194397,-0.539323,-0.475272
2944,-0.139359,-0.400212,-0.458863
2945,-0.179715,0.167439,-0.755543
2946,-0.163426,0.068278,-0.825871
2947,-0.206937,-0.028867,-0.930349
2948,-0.286608,0.052783,-0.837175
2949,-0.220375,-0.100168,-0.678025
2950,-0.237753,-0.389775,-0.512755
2951,-0.231374,-0.297539,-0.401787
2952,-0.260514,-0.021548,-0.533495
2953,-0.322498,0.115872,-0.602852
2954,-0.260434,0.108191,-0.514676
2955,-0.130045,-0.079306,-0.447722
2956,0.099576,-0.128564,-0.413165
