,userAcceleration.x,userAcceleration.y,userAcceleration.z
0,-0.534569,-0.158566,0.918927
1,0.02255,0.026424,0.394119
2,0.522461,0.306722,-0.095133
3,0.556612,0.253333,-0.207446
4,0.394126,-0.162551,0.027161
5,0.163723,-0.344101,0.014413
6,-0.000483,-0.278923,0.201558
7,-0.131228,-0.038598,0.206625
8,-0.063263,0.172722,-0.187226
9,0.185361,0.168021,-0.686954
10,0.351723,0.014174,-0.474863
11,0.231052,-0.102006,0.00959
12,0.141356,-0.190577,0.085489
13,0.103395,-0.172935,-0.075991
14,0.171803,0.016651,-0.089544
15,0.34264,0.102953,-0.136088
16,0.496331,0.101018,-0.070376
17,0.411756,0.236509,-0.090783
18,0.343057,0.329888,-0.183844
19,0.330264,0.38485,-0.247308
20,0.319832,0.428906,-0.352189
21,0.348335,0.351953,-0.336471
22,0.33388,0.377501,-0.258307
23,0.063531,0.544071,-0.122972
24,0.038633,0.474361,-0.14011
25,0.018939,0.444227,-0.19317
26,-0.141851,0.391091,-0.255803
27,-0.583982,0.676594,0.010522
28,-0.887097,0.666537,0.331354
29,-0.796236,0.266141,0.485344
30,-0.418575,-0.106823,0.286664
31,-0.016892,-0.073317,0.029935
32,0.301833,-0.023919,-0.077043
33,0.151277,-0.16751,0.277136
34,-0.017902,-0.256905,0.442458
35,-0.084795,-0.314695,0.579617
36,-0.096787,-0.452738,0.531829
37,-0.162559,-0.4504,0.425166
38,-0.207788,-0.446023,0.371598
39,-0.349417,-0.523794,0.243215
40,-0.367868,-0.631126,0.302562
41,-0.40905,-0.784464,0.244989
42,-0.023192,-0.595797,-0.003252
43,0.104783,-0.364271,-0.304784
44,0.358196,-0.008774,-0.782023
45,0.546898,0.711373,-1.197321
46,0.132593,1.128021,-0.519162
47,0.10151,1.20618,-0.190747
48,0.30259,0.482164,-0.233473
49,0.344115,-0.078867,-0.376882
50,-0.063088,0.026735,-0.440272
51,-0.61103,1.214351,-0.181921
52,-0.800552,1.015369,0.387222
53,-0.256416,-0.423552,0.608315
54,-0.501394,-0.56539,0.451218
55,-0.544727,-0.646953,0.158419
56,-0.185635,-0.55818,0.236062
57,-0.502491,-0.271822,0.985718
58,-0.550379,-0.267262,0.904734
59,-0.145916,-0.122411,0.350079
60,0.31991,0.176077,0.042908
61,0.389438,0.156616,-0.016676
62,0.300714,0.040637,0.173784
63,-0.031917,-0.204054,0.174475
64,-0.048061,-0.184404,0.130525
65,-0.068054,-0.149851,0.08242
66,0.050528,-0.033447,-0.371513
67,0.147702,0.019207,-0.554591
68,0.19203,0.056872,-0.374774
69,0.15394,-0.054748,-0.012436
70,0.143837,-0.093476,0.059418
71,0.155541,-0.033605,-0.059313
72,0.175348,0.060962,-0.204337
73,0.238226,0.186982,-0.272281
74,0.336208,0.216359,-0.159617
75,0.468601,0.264722,0.078108
76,0.59707,0.261532,0.002339
77,0.648723,0.296819,-0.274509
78,0.601687,0.371711,-0.459753
79,0.449995,0.389434,-0.296196
80,0.235895,0.468527,-0.058239
81,0.033333,0.556538,-0.108901
82,-0.026879,0.532571,-0.060454
83,-0.128636,0.311792,-0.185573
84,-0.082594,0.202363,-0.182342
85,-0.257825,0.457154,-0.026426
86,-0.511991,0.599919,0.162257
87,-0.513617,0.420869,0.227682
88,-0.21097,0.034136,0.10011
89,-0.051241,0.011549,0.203056
90,0.044349,0.061948,0.140543
91,0.115482,-0.087139,0.092979
92,0.014332,-0.169343,0.220401
93,-0.135554,-0.297045,0.336891
94,-0.18942,-0.405157,0.4242
95,-0.143786,-0.403555,0.408981
96,-0.15577,-0.426399,0.338198
97,-0.280478,-0.4794,0.352431
98,-0.384195,-0.606792,0.372182
99,-0.334697,-0.751264,0.241784
100,-0.164703,-0.784113,0.050565
101,0.011415,-0.565599,-0.2196
102,0.209676,-0.370494,-0.54585
103,0.626089,0.357696,-1.252916
104,0.574672,0.556842,-1.094488
105,0.160954,0.946233,-0.347159
106,-0.008851,1.216357,-0.068446
107,0.283188,0.485642,-0.33772
108,-0.005976,0.116455,-0.520024
109,-0.314927,0.559792,-0.532364
110,-0.792853,1.507271,0.307551
111,-0.456512,-0.470933,0.659596
112,-0.293243,-0.636764,0.481517
113,-0.617253,-0.703808,0.09194
114,-0.244465,-0.690943,0.388524
115,-0.293162,-0.540628,0.653708
116,-0.494957,-0.301424,0.780878
117,-0.078993,-0.087837,0.212095
118,0.508286,0.386395,0.021672
119,0.664215,0.443891,-0.037362
120,0.616248,0.053773,0.202855
121,0.28853,-0.183693,0.016506
122,0.108172,-0.236641,0.066223
123,0.011503,-0.168526,-0.043622
124,0.017879,0.057736,-0.505911
125,0.291289,0.193532,-0.746812
126,0.403987,0.111967,-0.375582
127,0.237157,-0.085423,0.05164
128,0.138787,-0.182167,0.056463
129,0.142882,-0.142198,-0.202675
130,0.208418,0.012687,-0.257805
131,0.299733,0.15696,-0.150425
132,0.41234,0.235702,-0.1204
133,0.535529,0.335589,-0.236654
134,0.537737,0.43465,-0.203282
135,0.548186,0.388999,-0.194137
136,0.632691,0.419079,-0.431162
137,0.593587,0.558831,-0.4585
138,0.467766,0.667377,-0.303263
139,0.351,0.679542,-0.050062
140,0.091287,0.645696,-0.361538
141,-0.035606,0.445261,-0.632737
142,-0.429903,0.590206,0.066742
143,-0.556527,0.58296,0.373598
144,-0.57969,0.492947,0.37764
145,-0.333587,0.098354,-0.003326
146,-0.151859,0.034441,-0.123016
147,0.088411,0.127936,-0.101991
148,0.296572,0.070181,0.125671
149,0.245268,-0.060026,0.13078
150,0.043281,-0.247045,0.207959
151,-0.139356,-0.429313,0.389858
152,-0.144156,-0.469493,0.382059
153,-0.054039,-0.55406,0.295399
154,-0.075615,-0.583655,0.279793
155,-0.155188,-0.631224,0.228493
156,-0.279385,-0.78122,0.236468
157,-0.265762,-0.864053,0.1829
158,-0.084753,-0.8756,-0.01516
159,0.179449,-0.57584,-0.340158
160,0.388444,-0.247482,-0.760462
161,0.534706,0.067873,-1.125587
162,0.312698,1.305769,-0.751487
163,0.154073,1.517049,-0.21471
164,0.235742,1.018712,-0.250992
165,0.483439,-0.233862,-0.620155
166,-0.012006,0.48085,-0.660943
167,-0.421447,1.130005,-0.752625
168,-0.999048,0.649248,0.879955
169,-0.308826,-0.659629,0.724332
170,-0.424538,-0.918285,0.496038
171,-0.210265,-0.765047,0.088395
172,-0.126795,-0.576163,0.509032
173,-0.228444,-0.324517,0.793365
174,-0.428251,-0.023845,0.549314
175,0.275324,0.475672,0.258191
176,0.682196,0.570292,-0.193148
177,0.820718,0.197103,0.280854
178,0.550024,-0.184738,-0.097488
179,0.204976,-0.347718,-0.070183
180,0.019629,-0.451017,-0.013156
181,-0.17516,-0.314616,-0.105024
182,-0.138612,-0.088955,-0.40564
183,0.03242,0.05,-0.583899
184,0.214788,0.102792,-0.429109
185,0.270175,0.082578,-0.160952
186,0.274835,0.094486,-0.091886
187,0.325787,0.124776,-0.235594
188,0.480381,0.195933,-0.386339
189,0.678411,0.3396,-0.423007
190,0.752841,0.44082,-0.194097
191,0.699253,0.348414,-0.018026
192,0.593595,0.301541,-0.452645
193,0.41641,0.46037,-0.6252
194,0.314365,0.552548,-0.397382
195,0.084311,0.726044,-0.068318
196,0.141269,0.588394,-0.338766
197,0.140863,0.464544,-0.488361
198,-0.328302,0.8615,0.029615
199,-0.490599,0.896007,0.375836
200,-0.558933,0.583283,0.28161
201,-0.291465,0.182062,0.020344
202,-0.052514,0.078986,-0.116478
203,0.07934,0.088969,-0.17623
204,0.108141,-0.08964,0.261287
205,0.030403,-0.201882,0.280033
206,-0.166853,-0.425679,0.242366
207,-0.210543,-0.478148,0.342258
208,-0.201235,-0.494333,0.373579
209,-0.081081,-0.48667,0.230334
210,-0.106468,-0.515809,0.161556
211,-0.222172,-0.592635,0.166004
212,-0.280595,-0.680014,0.224389
213,-0.201934,-0.966284,0.185339
214,-0.022469,-0.942941,0.026607
215,0.071557,-0.871105,-0.102008
216,0.331627,-0.324207,-0.835276
217,0.849837,0.790438,-1.728539
218,0.863476,1.37814,-1.273365
219,0.21383,1.609423,-0.154072
220,0.388912,0.096419,-0.723211
221,0.360136,0.096067,-0.704742
222,-0.402413,0.005609,-0.490863
223,-0.927096,0.967648,-0.133144
224,-1.153484,0.58184,0.61041
225,-0.349073,-0.354903,0.720247
226,-0.338616,-0.732981,0.108169
227,-0.178762,-0.748765,0.085918
228,0.061342,-0.543746,0.467799
229,-0.241564,-0.206121,0.713242
230,-0.291776,-0.116236,0.527587
231,0.35353,0.327847,-0.093984
232,0.488294,0.374354,-0.21648
233,0.562712,0.197381,0.078298
234,0.389989,-0.193488,-0.058437
235,0.247193,-0.229828,-0.052041
236,0.051041,-0.280068,0.060879
237,-0.020013,-0.175131,-0.210159
238,0.043594,-0.11093,-0.407721
239,0.13527,0.043334,-0.590797
240,0.197263,0.007578,-0.203269
241,0.169643,0.021257,-0.100548
242,0.167225,0.00325,-0.150294
243,0.241729,0.014966,-0.324689
244,0.440211,0.193072,-0.379676
245,0.498826,0.232679,-0.35293
246,0.586437,0.308243,-0.253844
247,0.630638,0.412189,-0.074569
248,0.684613,0.37832,-0.215102
249,0.69348,0.364784,-0.52555
250,0.470108,0.551083,-0.36732
251,0.351124,0.629277,-0.277933
252,0.235245,0.898689,-0.196969
253,0.047475,0.938235,-0.491683
254,-0.42598,0.690098,-0.055158
255,-0.659189,0.741817,0.286363
256,-0.705294,0.675429,0.228612
257,-0.40365,0.224101,0.031325
258,-0.154725,-0.001261,-0.212886
259,0.076021,-0.032531,-0.187607
260,0.242167,-0.00996,0.170451
261,0.25459,-0.217623,0.247883
262,0.028523,-0.380023,0.228859
263,-0.08113,-0.396142,0.299786
264,-0.098712,-0.403213,0.278149
265,-0.093308,-0.457877,0.250514
266,-0.12507,-0.577181,0.267617
267,-0.192645,-0.700869,0.242762
268,-0.190629,-0.721454,0.259653
269,-0.180319,-0.769289,0.249321
270,-0.058269,-0.86353,0.077301
271,0.105935,-0.815898,-0.084177
272,0.187142,-0.718967,-0.307741
273,0.582365,0.176346,-1.33007
274,0.356622,1.740752,-0.718002
275,0.379503,1.74458,-0.716559
276,0.317027,0.719186,-0.543764
277,-0.063304,0.705841,-0.817806
278,-0.508672,1.294034,-0.904721
279,-1.088725,1.572699,-0.148899
280,0.066443,-0.914029,0.967992
281,-0.113737,-1.205096,0.914648
282,-0.605247,-1.144947,0.124096
283,-0.057244,-0.393933,0.557249
284,-0.399568,-0.097404,0.752436
285,-0.632266,-0.025168,0.511599
286,-0.178002,0.055095,0.288407
287,0.580581,0.488909,-0.089075
288,0.782657,0.278372,-0.178242
289,0.518382,-0.170499,0.071893
290,0.365283,-0.262852,0.083125
291,0.129171,-0.370573,0.064081
292,-0.138259,-0.293631,0.011059
293,-0.175355,-0.18394,-0.198254
294,0.028796,0.024532,-0.658664
295,0.216043,0.117245,-0.503455
296,0.253928,0.068445,-0.273096
297,0.226398,-0.067162,0.050641
298,0.247619,-0.039017,-0.124005
299,0.325713,0.061952,-0.41107
300,0.543416,0.191461,-0.301266
301,0.565742,0.266935,-0.182026
302,0.617436,0.417077,0.007279
303,0.689906,0.381506,-0.251885
304,0.630792,0.370116,-0.560587
305,0.554394,0.436131,-0.339482
306,0.37365,0.678305,-0.192469
307,0.313772,0.817285,-0.074547
308,0.180144,0.798424,-0.48303
309,-0.051673,0.705239,-0.757019
310,-0.541941,0.739288,0.163887
311,-0.874933,0.701322,0.34758
312,-0.786757,0.530239,0.118563
313,-0.328816,0.184503,0.076103
314,0.169256,-0.064882,-0.055328
315,0.258761,0.166948,0.03327
316,0.280117,0.112236,0.151524
317,0.09424,-0.182254,0.238891
318,-0.050159,-0.301423,0.335725
319,-0.053853,-0.382762,0.367621
320,-0.000358,-0.492258,0.414009
321,0.001178,-0.65919,0.331984
322,-0.184298,-0.832991,0.204252
323,-0.240978,-0.855247,0.159627
324,-0.264374,-0.888836,0.201313
325,-0.138801,-0.849701,0.085715
326,-0.047032,-0.860988,0.059529
327,0.137745,-0.787952,-0.166539
328,0.348562,-0.352626,-0.628502
329,0.866789,0.576218,-1.374865
330,0.541184,1.64266,-0.981693
331,-0.193977,1.562118,-0.368547
332,0.019237,0.422133,-0.626951
333,0.289157,-0.265259,-0.626824
334,-0.160514,0.250034,-0.73578
335,-0.544105,1.429589,-0.576902
336,-0.757528,0.615461,0.580354
337,-0.387548,-0.606654,0.648967
338,-0.54515,-0.738209,0.229061
339,-0.214176,-0.588545,-0.00385
340,-0.21432,-0.152681,0.940238
341,-0.315611,-0.07081,0.909993
342,0.135928,0.197045,0.295898
343,0.36694,0.300782,0.129119
344,0.485859,0.244644,-0.208853
345,0.323582,-0.066939,-0.077712
346,0.245211,-0.18478,-0.096891
347,0.188788,-0.316315,0.007897
348,0.055358,-0.293864,-0.114484
349,0.019722,-0.208955,-0.217873
350,0.028477,-0.039369,-0.339883
351,0.196039,-0.066872,-0.25585
352,0.21308,-0.066127,-0.273291
353,0.181289,-0.084434,-0.22056
354,0.234049,-0.103791,-0.201738
355,0.365676,-0.016754,-0.264226
356,0.518081,0.138197,-0.355514
357,0.594186,0.386676,-0.279109
358,0.57606,0.424247,-0.173867
359,0.568615,0.436724,-0.096782
360,0.686832,0.453877,-0.31431
361,0.774667,0.594807,-0.509427
362,0.751465,0.641006,-0.416803
363,0.55827,0.756837,-0.127936
364,0.341758,0.898838,-0.323178
365,-0.18899,0.822333,-0.46913
366,-0.826842,0.705307,0.145452
367,-0.751259,0.65574,0.111833
368,-0.638196,0.561226,0.072467
369,-0.290513,0.270367,-0.032143
370,-0.086854,0.130799,-0.124367
371,0.307602,0.177032,0.07158
372,0.430699,0.158358,0.232135
373,0.312472,-0.113979,0.230645
374,0.052151,-0.290915,0.377907
375,-0.135998,-0.411545,0.45014
376,-0.142626,-0.474528,0.46636
377,-0.081735,-0.632447,0.40764
378,-0.108619,-0.723781,0.250703
379,-0.209298,-0.694705,0.185855
380,-0.254253,-0.740578,0.192906
381,-0.20604,-0.866254,0.146957
382,-0.010354,-0.915694,-0.001365
383,0.226421,-0.666847,-0.356207
384,0.631875,-0.134059,-0.892293
385,0.742167,0.757241,-1.434164
386,0.12141,1.385303,-0.713058
387,0.070711,0.660107,-0.388842
388,0.429674,0.014683,-0.648237
389,0.517546,-0.249031,-0.681708
390,-0.065525,0.722856,-0.893383
391,-0.69758,1.611407,0.413712
392,-1.083228,0.992033,0.994145
393,-0.646002,-0.45335,0.318813
394,-0.62306,-0.654443,-0.125955
395,-0.054724,-0.694273,0.241615
396,0.041278,-0.488321,0.786423
397,-0.129355,-0.250867,0.783499
398,0.128799,-0.060767,0.227698
399,0.403183,0.373955,-0.207093
400,0.304161,0.164508,-0.114503
401,0.335708,-0.031251,0.095497
402,0.297142,-0.298761,0.126752
403,0.178687,-0.319231,0.057781
404,0.071412,-0.286119,-0.042914
405,0.090719,-0.110276,-0.323061
406,0.179434,0.047799,-0.341403
407,0.17421,0.07589,-0.243854
408,0.103231,-0.033151,-0.259847
409,0.134069,0.127663,-0.313763
410,0.152811,0.142674,-0.333251
411,0.30362,0.286826,-0.164423
412,0.790968,0.413641,-0.578213
413,0.885182,0.431897,-0.493298
414,0.848536,0.391966,-0.031142
415,0.824664,0.377396,-0.155562
416,0.701109,0.504843,-0.568125
417,0.407359,0.73021,-0.345723
418,0.258225,0.726023,-0.130176
419,0.210413,0.670513,0.025459
420,0.062965,0.47725,-0.176472
421,-0.170774,0.602082,-0.38753
422,-0.542335,0.810043,0.101695
423,-0.648646,0.748163,0.242427
424,-0.427283,0.232146,0.060807
425,-0.215944,0.105602,0.017825
426,0.075856,-0.014691,0.10193
427,0.351528,0.092137,0.10462
428,0.282755,-0.004008,0.134192
429,-0.07859,-0.300399,0.285376
430,-0.162492,-0.369907,0.377838
431,-0.142227,-0.490401,0.391737
432,-0.064117,-0.636697,0.330964
433,-0.088441,-0.686598,0.278892
434,-0.273852,-0.724919,0.1648
435,-0.386393,-0.77998,0.20876
436,-0.325493,-0.794998,0.191826
437,-0.184885,-0.682995,0.05855
438,0.015269,-0.627191,-0.061152
439,0.267256,-0.401567,-0.429604
440,0.7508,0.22312,-1.099284
441,0.880094,1.273929,-1.205164
442,0.21639,1.77038,-0.45904
443,0.194633,1.518572,-0.220798
444,0.710136,0.100153,-0.592301
445,0.665894,-0.57006,-0.622762
446,0.224196,-0.3075,-0.429015
447,-1.086817,1.130693,0.446952
448,-1.369704,0.310098,0.478904
449,-0.629439,-0.347104,0.362735
450,-0.532599,-0.592199,-0.023965
451,-0.13425,-0.622754,0.166185
452,-0.043621,-0.559002,0.424691
453,-0.115023,-0.002251,0.776797
454,-0.264866,-0.128453,0.473872
455,-0.162285,-0.127143,-0.065609
456,0.432082,-0.054176,-0.250204
457,0.503006,-0.111253,0.014542
458,0.456939,-0.194123,0.039443
459,0.148234,-0.194761,0.042382
460,0.050748,-0.068581,0.100655
461,0.048326,-0.01483,0.056393
462,0.257326,0.139347,-0.49982
463,0.345873,0.022279,-0.734915
464,0.270755,-0.021422,-0.57282
465,0.076663,-0.04286,-0.010178
466,0.150013,0.042919,0.075955
467,0.284142,0.191149,-0.299534
468,0.424775,0.388204,-0.529335
469,0.643666,0.484064,-0.35777
470,0.747632,0.439088,-0.164647
471,0.689957,0.441465,-0.160766
472,0.587607,0.495271,-0.51226
473,0.452087,0.597914,-0.431072
474,0.177012,0.794909,-0.180971
475,0.030685,0.657091,-0.036121
476,-0.050787,0.535161,-0.302892
477,0.111085,0.28719,-0.325239
478,-0.293595,0.523383,-0.191608
479,-0.53181,0.606755,0.010503
480,-0.665151,0.549573,0.177566
481,-0.404154,0.127472,0.134908
482,-0.323305,0.036111,0.210206
483,0.125369,0.078627,0.161146
484,0.225884,0.018828,0.103557
485,0.214465,-0.165486,0.046895
486,0.019553,-0.379141,0.283418
487,-0.081726,-0.48467,0.38997
488,-0.023941,-0.629804,0.408589
489,-0.060629,-0.655651,0.31958
490,-0.11132,-0.638592,0.307195
491,-0.286415,-0.70142,0.311369
492,-0.29681,-0.866728,0.241681
493,-0.1944,-0.909176,0.149498
494,0.160453,-0.731347,-0.152347
495,0.329754,-0.415047,-0.633028
496,0.440205,-0.15204,-0.971826
497,0.582815,1.15651,-1.34152
498,0.009085,1.351934,-0.232511
499,0.000361,1.335606,-0.081365
500,0.472968,0.395132,-0.637782
501,-0.054101,0.868196,-0.803943
502,-0.725801,1.689058,-0.742982
503,-0.744913,0.964894,0.403838
504,-0.351796,-1.166629,1.010256
505,-0.959764,-0.834127,0.079189
506,-0.79105,-0.710715,-0.224298
507,-0.111801,-0.222844,0.580839
508,-0.510994,0.009748,0.947188
509,-0.463414,0.001235,0.767129
510,0.530871,0.180158,0.196676
511,0.589668,0.107673,-0.391229
512,0.580362,0.060815,-0.425596
513,0.263336,-0.164258,0.092101
514,0.132952,-0.391147,0.000146
515,0.102749,-0.430812,-0.02658
516,0.031713,-0.209272,0.072233
517,0.219111,0.233571,-0.129417
518,0.386447,0.33978,-0.530458
519,0.527087,0.210746,-0.826618
520,0.327852,-0.006898,-0.379925
521,0.127353,-0.119794,-0.012579
522,0.112778,-0.116711,-0.022734
523,0.179718,0.068495,-0.291558
524,0.319888,0.242462,-0.45906
525,0.565995,0.287653,-0.291874
526,0.827239,0.40074,-0.082371
527,0.894215,0.479769,-0.012326
528,0.682899,0.417487,-0.424776
529,0.50592,0.411742,-0.52096
530,0.250343,0.602453,-0.253486
531,0.010174,0.692951,-0.159199
532,0.068198,0.48251,-0.426984
533,0.060567,0.370788,-0.493129
534,-0.0082,0.487364,-0.381801
535,-0.684666,0.769428,0.43056
536,-0.75223,0.743462,0.387154
537,-0.490212,0.318268,0.06145
538,-0.266489,0.18753,0.050631
539,0.288739,0.137177,0.081512
540,0.315388,0.016655,0.210137
541,0.242678,-0.095651,0.256808
542,-0.063043,-0.36917,0.338196
543,-0.19198,-0.485248,0.458272
544,-0.195169,-0.544173,0.508797
545,-0.093164,-0.670455,0.361534
546,-0.130658,-0.732343,0.281881
547,-0.161748,-0.735578,0.275062
548,-0.176805,-0.802894,0.238208
549,-0.103721,-0.864389,0.11281
550,0.013835,-0.851246,0.036815
551,0.206582,-0.582855,-0.414983
552,0.492894,-0.048558,-0.99533
553,0.586347,1.037667,-1.492335
554,0.396724,1.553924,-1.075484
555,-0.009875,1.186649,-0.083529
556,0.290332,0.182118,-0.472054
557,0.382036,-0.083208,-0.581584
558,0.66877,-0.755475,-0.678153
559,0.024179,0.213774,-0.366436
560,-0.171033,0.967319,0.026971
561,-1.830593,1.000319,0.626497
562,-0.278959,-0.42277,0.091311
563,-0.218535,-0.678528,0.066889
564,0.040845,-0.891685,0.240045
565,-0.125231,-0.577182,0.513247
566,-0.228213,-0.278497,0.56987
567,-0.18524,-0.082539,0.207877
568,0.34363,0.195053,0.081146
569,0.428336,0.255983,0.067528
570,0.521228,0.2388,0.141853
571,0.672702,0.044496,0.020288
572,0.331262,-0.181539,-0.051009
573,0.024514,-0.257551,-0.226709
574,-0.070356,-0.147598,-0.433077
575,-0.057319,-0.109625,-0.417739
576,-0.007413,-0.089767,-0.294616
577,0.125337,-0.046674,-0.192695
578,0.202043,0.017506,-0.185909
579,0.313722,0.153725,-0.202109
580,0.56311,0.282938,-0.387657
581,0.597659,0.332941,-0.448165
582,0.576506,0.397083,-0.278527
583,0.549906,0.427783,-0.013067
584,0.655675,0.404301,-0.233462
585,0.67991,0.500534,-0.731231
586,0.611722,0.519163,-0.67619
587,0.481643,0.51845,-0.498817
588,0.053621,0.614202,-0.462323
589,0.036004,0.448276,-0.376995
590,-0.170213,0.416004,-0.127236
591,-0.247867,0.616042,0.355212
592,-0.398698,0.79649,0.228797
593,-0.512016,0.763858,-0.177033
594,-0.380904,0.559523,-0.107059
595,-0.052554,0.199026,0.164033
596,0.20118,0.101549,0.068224
597,0.180919,-0.071199,-0.004216
598,-0.029768,-0.295748,0.077348
599,-0.149465,-0.432993,0.241883
600,-0.225389,-0.529674,0.445591
601,-0.134263,-0.604006,0.497583
602,-0.098003,-0.554771,0.362857
603,-0.216317,-0.731174,0.302198
604,-0.321914,-0.950992,0.193924
605,-0.292777,-1.017145,0.094946
606,-0.02435,-0.94289,-0.174383
607,0.196948,-0.584042,-0.527091
608,0.404706,-0.286633,-0.907795
609,0.891634,0.810073,-1.669764
610,0.242694,1.693624,-0.956707
611,-0.075141,1.7221,-0.521016
612,0.542203,-0.013959,-0.545974
613,0.266693,-0.407479,-0.749576
614,-0.069027,0.026707,-0.779683
615,-1.078131,1.603141,0.393246
616,-0.88773,-0.300465,0.937905
617,-0.553179,-0.755109,0.772006
618,-0.500522,-0.626505,-0.075531
619,0.021456,-0.483644,0.281391
620,0.068519,-0.351859,0.653687
621,-0.052051,0.151978,0.881581
622,-0.091506,-0.201929,0.03499
623,0.208603,-0.146306,-0.274447
624,0.461646,-0.057874,-0.523638
625,0.342097,-0.076205,0.108639
626,0.247819,-0.165511,0.045786
627,0.210464,-0.246202,-0.018635
628,0.144675,-0.123808,0.208491
629,0.136354,0.125071,0.122056
630,0.389025,0.266712,-0.445373
631,0.434949,0.185798,-0.773965
632,0.092065,-0.034715,-0.466226
633,0.062583,-0.097953,-0.118936
634,0.083587,-0.077481,-0.02844
635,0.273831,0.066926,-0.281459
636,0.428334,0.209271,-0.541094
637,0.50328,0.254374,-0.520997
638,0.611071,0.417731,-0.147931
639,0.691487,0.446837,-0.051957
640,0.717727,0.423093,-0.170807
641,0.646618,0.438367,-0.592493
642,0.458316,0.618144,-0.32839
643,0.171832,0.829253,-0.179044
644,0.077126,0.697309,0.02792
645,-0.042623,0.485664,-0.382919
646,-0.04087,0.402889,-0.4055
647,-0.11251,0.401941,-0.396447
648,-0.522648,0.705632,0.021777
649,-0.572144,0.569303,0.109853
650,-0.459473,0.459704,0.244291
651,-0.055845,0.222599,0.48977
652,0.379232,0.143243,-0.10175
653,0.393373,-0.001389,-0.089723
654,0.211903,-0.252335,-0.01077
655,-0.024026,-0.512518,0.420346
656,-0.072998,-0.594495,0.438101
657,-0.05487,-0.687402,0.316516
658,-0.084443,-0.696366,0.328831
659,-0.114778,-0.657367,0.367435
660,-0.15961,-0.693065,0.350197
661,-0.157209,-0.923727,0.176992
662,-0.087905,-0.945958,0.057212
663,0.072612,-0.875165,-0.137573
664,0.435866,-0.084246,-0.993454
665,0.699986,0.39217,-1.596767
666,0.779186,1.364736,-1.280531
667,0.148091,1.48527,-0.290908
668,0.297439,0.779809,-0.325271
669,0.676848,0.108841,-0.531029
670,0.075931,-0.194754,-0.509102
671,-0.269527,0.191908,-0.531674
672,-0.587487,1.25088,0.078255
673,-1.050509,-0.177247,0.693505
674,-0.588793,-0.587637,0.407188
675,-0.230606,-0.552422,-0.150913
676,0.071529,-0.552675,0.411097
677,-0.025515,-0.543271,0.750758
678,-0.386862,-0.178725,0.642289
679,-0.065647,-0.08947,0.252323
680,0.29185,0.187678,0.061378
681,0.656615,0.195767,0.24622
682,0.631452,0.027117,0.107068
683,0.538172,-0.160275,-0.005096
684,0.206737,-0.230884,0.011304
685,-0.011426,-0.147376,0.099316
686,-0.102699,-0.065673,-0.02324
687,0.104996,0.051097,-0.728345
688,0.348319,0.185309,-0.863593
689,0.430293,0.155837,-0.611507
690,0.349418,0.001396,0.252861
691,0.257816,0.017621,0.003157
692,0.231451,0.105649,-0.219594
693,0.321535,0.273954,-0.499403
694,0.508468,0.316586,-0.373814
695,0.607085,0.320245,-0.290391
696,0.748544,0.320847,-0.098973
697,0.58695,0.385864,-0.571631
698,0.51551,0.44752,-0.63279
699,0.36208,0.521428,-0.338002
700,0.103791,0.760567,-0.054168
701,0.030837,0.682724,-0.012073
702,0.096328,0.498546,-0.306097
703,0.139668,0.431911,-0.427453
704,-0.112723,0.711573,-0.181257
705,-0.517776,0.765914,0.161667
706,-0.700703,0.554163,0.185235
707,-0.450708,0.129131,0.122682
708,-0.095308,-0.042482,0.121075
709,0.253107,-0.002932,0.094254
710,0.299345,0.013236,0.0649
711,0.214754,-0.092568,0.108857
712,0.004928,-0.340929,0.427269
713,-0.056676,-0.400822,0.476
714,-0.023559,-0.55507,0.416763
715,-0.08078,-0.671884,0.320498
716,-0.180197,-0.695733,0.267239
717,-0.287838,-0.75587,0.181826
718,-0.263332,-0.796191,0.14971
719,-0.054985,-0.731178,-0.013436
720,0.140277,-0.640863,-0.180102
721,0.420348,-0.395945,-0.56786
722,0.619922,-0.194073,-0.850844
723,0.627404,0.878386,-1.332913
724,-0.306849,1.644814,-0.587283
725,-0.486223,1.677387,-0.396131
726,0.671675,0.134629,-0.717045
727,0.780246,-0.264845,-0.709978
728,0.341558,0.030973,-0.703111
729,-0.613187,1.079043,0.780748
730,-1.237782,0.082102,0.939515
731,-0.797661,-0.259751,0.636776
732,-0.365321,-0.760023,-0.036743
733,-0.193445,-0.793919,0.340505
734,-0.158872,-0.726879,0.556287
735,-0.384783,-0.427814,0.477706
736,0.003863,-0.048514,-0.014082
737,0.399465,0.411186,-0.134533
738,0.383957,0.331744,0.293572
739,0.670261,0.236093,0.526904
740,0.717326,-0.108857,-0.114515
741,0.300946,-0.204127,-0.209998
742,0.042018,-0.198496,-0.111333
743,-0.008296,-0.124896,-0.348236
744,0.087397,-0.033329,-0.537716
745,0.149014,0.075744,-0.493855
746,0.152047,0.0259,-0.283277
747,0.181701,0.037978,-0.138028
748,0.241794,0.171152,-0.197587
749,0.457997,0.265159,-0.415715
750,0.700712,0.340758,-0.509974
751,0.810279,0.351673,-0.296881
752,0.717451,0.413176,0.002229
753,0.640967,0.402373,-0.307237
754,0.498534,0.455135,-0.598311
755,0.398879,0.52704,-0.426934
756,0.153647,0.691688,-0.192417
757,0.111395,0.527252,-0.32504
758,0.086722,0.390715,-0.476417
759,-0.011784,0.533826,-0.707489
760,-0.470728,0.855626,0.579052
761,-0.608382,0.835274,0.628701
762,-0.628437,0.379544,0.04647
763,-0.429116,0.272092,-0.104839
764,0.234238,0.120193,-0.124147
765,0.155709,0.04614,0.15511
766,0.113792,-0.202604,0.222879
767,-0.058348,-0.440557,0.189119
768,-0.182949,-0.555649,0.314551
769,-0.18886,-0.549644,0.399405
770,-0.054152,-0.599345,0.382834
771,-0.039002,-0.703792,0.308277
772,-0.109124,-0.695351,0.303602
773,-0.23079,-0.829303,0.266087
774,-0.035198,-0.967757,0.007625
775,0.08284,-0.931986,-0.127309
776,0.203295,-0.829889,-0.352622
777,0.63872,-0.027843,-1.358739
778,0.628206,1.039987,-1.570707
779,0.267694,1.454518,-0.906149
780,-0.011436,1.210945,-0.261384
781,0.378393,0.135884,-0.515213
782,0.437033,-0.231163,-0.591691
783,-0.238329,0.191101,-0.782188
784,-0.734748,1.294433,0.037897
785,-0.997802,1.023009,0.634121
786,-0.466081,-0.312038,0.354157
787,-0.318609,-0.688835,0.064869
788,-0.198526,-0.710275,0.027543
789,-0.129757,-0.355336,0.864063
790,-0.417908,-0.247612,0.827331
791,-0.107539,-0.157561,0.171267
792,0.363888,0.384711,-0.172728
793,0.376007,0.192218,0.037508
794,0.565621,0.089496,0.305796
795,0.648916,-0.24381,-0.150193
796,0.254853,-0.273819,-0.177708
797,-0.016183,-0.225629,-0.166075
798,-0.096344,-0.071479,-0.350248
799,0.062515,0.003125,-0.378118
800,0.165466,0.022795,-0.274093
801,0.184624,0.015764,-0.309542
802,0.237987,0.014242,-0.28041
803,0.307013,0.101172,-0.215428
804,0.46118,0.211175,-0.253986
805,0.70711,0.303277,-0.445399
806,0.764677,0.393054,-0.312699
807,0.622388,0.46182,-0.07243
808,0.618031,0.444121,-0.339799
809,0.610711,0.43113,-0.541784
810,0.517631,0.44891,-0.607474
811,0.320756,0.656486,-0.311377
812,0.1771,0.676861,-0.316964
813,0.187825,0.525033,-0.416367
814,-0.126014,0.572736,-0.186499
815,-0.293043,0.667753,0.341353
816,-0.385263,0.793875,0.499078
817,-0.486879,0.739005,0.302143
818,-0.042254,0.4223,0.034323
819,0.299577,0.333335,-0.109757
820,0.281209,0.238171,-0.04992
821,-0.046764,-0.273574,0.157698
822,-0.260571,-0.473421,0.194402
823,-0.28119,-0.545921,0.330152
824,-0.202563,-0.584454,0.456392
825,-0.070877,-0.523824,0.41091
826,-0.122445,-0.475392,0.309287
827,-0.27463,-0.54532,0.316274
828,-0.355971,-0.917357,0.189417
829,-0.258463,-0.957322,0.069987
830,-0.035843,-0.927553,-0.150894
831,0.1849,-0.580618,-0.534375
832,0.469096,0.043107,-1.216337
833,0.769324,0.552779,-1.582154
834,0.116674,1.649944,-0.519747
835,-0.068555,1.587058,-0.33869
836,0.430904,0.045346,-0.47801
837,0.586708,-0.580262,-0.906905
838,0.079227,0.142501,-0.624398
839,-0.382071,0.718906,-0.416314
840,-1.42717,0.630952,1.039556
841,-0.543468,-0.167952,0.310644
842,-0.366554,-0.506061,0.068284
843,-0.084728,-0.768945,0.253924
844,-0.050355,-0.64704,0.709055
845,-0.174866,-0.392775,0.684541
846,-0.140744,-0.088339,0.062154
847,0.146274,0.298927,-0.176647
848,0.210247,0.130789,-0.032692
849,0.382132,0.117797,0.410871
850,0.650511,0.023049,0.155278
851,0.328777,-0.092893,-0.218364
852,0.054581,-0.117942,-0.203068
853,0.065352,-0.13416,-0.218923
854,0.045478,-0.117197,-0.325742
855,0.058281,-0.10808,-0.34445
856,0.08417,-0.016104,-0.382713
857,0.105861,0.105147,-0.389025
858,0.193424,0.175899,-0.300681
859,0.51349,0.143107,-0.346476
860,0.799979,0.306625,-0.467018
861,0.769587,0.425492,-0.329197
862,0.535996,0.354534,-0.208569
863,0.496797,0.329668,-0.389556
864,0.423808,0.443848,-0.603392
865,0.298545,0.552857,-0.575448
866,0.15424,0.699155,-0.380177
867,-0.126518,0.668061,-0.366837
868,-0.062514,0.291835,-0.385198
869,-0.133298,0.397069,-0.294822
870,-0.224788,0.739768,0.418478
871,-0.426779,0.741215,0.25076
872,-0.442238,0.634149,0.072005
873,0.143506,0.530345,-0.160551
874,0.23332,0.418696,-0.069253
875,0.132735,0.137073,0.034986
876,-0.068444,-0.425556,0.146991
877,-0.110883,-0.464626,0.190272
878,-0.149402,-0.519782,0.262145
879,-0.105466,-0.635406,0.386936
880,-0.035722,-0.598522,0.301963
881,-0.058104,-0.609515,0.256118
882,-0.222237,-0.708028,0.261708
883,-0.250558,-0.834241,0.229362
884,-0.207291,-0.963984,0.158191
885,0.025387,-0.962361,-0.086571
886,0.200655,-0.716358,-0.428856
887,0.616648,-0.053009,-1.229666
888,0.949756,1.330275,-1.619177
889,-0.116522,2.351915,-0.669727
890,-0.165417,1.937387,-0.361542
891,0.520477,-0.03572,-0.457201
892,0.028457,-0.071221,-0.679359
893,-0.697677,1.400572,-0.68196
894,-0.838198,0.662869,0.620505
895,-0.572953,-1.010224,0.857672
896,-0.83971,-1.000498,0.142764
897,-0.528553,-0.672718,-0.132757
898,-0.121977,-0.413279,0.560043
899,-0.333678,-0.04317,0.90284
900,-0.226244,0.071179,0.617856
901,0.355812,0.328434,0.131042
902,0.606221,0.392,-0.204786
903,0.622553,0.184557,-0.026467
904,0.3426,-0.235625,-0.117371
905,0.223091,-0.363773,-0.011708
906,-0.010466,-0.393516,0.080475
907,-0.083753,-0.191211,-0.136722
908,-0.057149,-0.097809,-0.236412
909,0.080757,0.031143,-0.460731
910,0.232863,0.069559,-0.36828
911,0.281203,0.071978,-0.269235
912,0.323819,0.06789,-0.089834
913,0.389524,0.139945,-0.175695
914,0.45886,0.211019,-0.332522
915,0.664453,0.455019,-0.535605
916,0.654169,0.508729,-0.211864
917,0.69254,0.506779,-0.133524
918,0.675527,0.464102,-0.528775
919,0.61514,0.474571,-0.672697
920,0.309544,0.736374,-0.194851
921,0.078096,0.6171,0.03299
922,0.009883,0.545109,-0.147375
923,-0.004868,0.438117,-0.265155
924,-0.069849,0.667175,-0.351595
925,-0.449743,0.760372,0.007749
926,-0.666191,0.732583,0.041217
927,-0.56908,0.254131,0.123184
928,-0.293126,0.032229,0.306495
929,-0.053933,-0.006709,0.38094
930,0.371687,0.0569,-0.103594
931,0.367763,-0.173993,-0.055522
932,0.243266,-0.221858,0.091809
933,-0.059148,-0.496534,0.490827
934,-0.023122,-0.528619,0.379507
935,0.005204,-0.553347,0.325855
936,-0.181472,-0.637013,0.346463
937,-0.264607,-0.68761,0.36941
938,-0.29208,-0.78504,0.341167
939,-0.027277,-0.929157,0.107312
940,0.159071,-0.793379,-0.095551
941,0.294042,-0.63843,-0.358351
942,0.999049,0.50767,-1.417928
943,0.703712,0.750747,-0.691495
944,0.189285,0.601032,-0.34002
945,-0.059907,0.424717,-0.494532
946,0.071055,0.048762,-0.441033
947,-0.223385,0.231597,-0.674449
948,-0.656137,1.375837,-1.010623
949,-0.592147,1.519944,0.069093
950,0.127835,-0.368834,1.01273
951,-0.491009,-0.846049,0.119384
952,-0.424842,-0.806373,-0.17705
953,-0.005556,-0.548953,0.239592
954,-0.32523,-0.159013,0.724127
955,-0.382664,-0.041938,0.63694
956,0.321802,0.173315,0.195544
957,0.675349,0.397733,-0.149803
958,0.554139,0.223567,-0.324631
959,0.397028,-0.014716,-0.095981
960,0.279112,-0.174078,0.082583
961,0.19592,-0.294601,0.145154
962,0.113956,-0.383068,-0.012866
963,0.019576,-0.323237,-0.145408
964,-0.01102,-0.102412,-0.420479
965,0.028385,-0.015711,-0.432621
966,0.176335,-0.003127,-0.254267
967,0.20691,0.068046,-0.243597
968,0.25417,0.137028,-0.215986
969,0.485387,0.243392,-0.156335
970,0.587519,0.325005,-0.295681
971,0.724034,0.496394,-0.58566
972,0.654791,0.380822,-0.030769
973,0.649647,0.375367,0.026045
974,0.647141,0.450912,-0.117475
975,0.444651,0.684854,0.0562
976,0.301409,0.815675,0.044833
977,0.098836,0.938692,-0.230649
978,-0.187383,0.723713,-0.650893
979,-0.673836,0.575346,-0.177961
980,-0.832806,0.524261,0.064387
981,-0.595273,0.285764,0.060386
982,-0.430201,0.062781,0.003432
983,-0.214023,-0.103428,-0.10809
984,0.062041,-0.180071,0.159413
985,0.420461,-0.074871,0.297746
986,0.580771,-0.002508,0.029754
987,0.294587,-0.039944,0.086575
988,-0.011829,-0.185503,0.332723
989,-0.105727,-0.424266,0.352682
990,-0.063056,-0.629036,0.32177
991,-0.032079,-0.787313,0.280658
992,-0.027443,-0.903535,0.233826
993,-0.144703,-0.939108,0.106626
994,-0.177693,-0.957274,0.062106
995,-0.130152,-0.971343,0.020989
996,0.034109,-0.830905,-0.177312
997,0.253827,-0.402697,-0.624778
998,0.689999,0.685329,-1.239792
999,0.610002,1.697082,-1.045788
1000,0.309996,1.180693,-0.589704
1001,0.123192,0.335734,-0.466836
1002,0.053325,-0.140887,-0.482459
1003,-0.525127,0.641895,-0.732559
1004,-0.569495,1.028946,-0.70053
1005,-0.488951,0.710706,0.246262
1006,-0.322102,-0.243039,0.786948
1007,-0.3976,-0.29851,0.491798
1008,-0.190892,-0.232328,0.153236
1009,-0.144794,-0.209432,0.719786
1010,-0.194597,-0.086804,0.741495
1011,-0.033607,-0.014082,0.307539
1012,0.425692,0.105058,-0.045007
1013,0.411843,0.068125,-0.056838
1014,0.269113,0.009055,0.0577
1015,0.260504,0.015913,-0.048981
1016,0.177934,-0.10887,-0.152429
1017,0.09069,-0.260073,-0.211102
1018,0.05261,-0.299143,-0.272748
1019,-0.01732,-0.335083,-0.372644
1020,0.032054,-0.259149,-0.29397
1021,0.068815,-0.184912,-0.196901
1022,0.177774,-0.124639,-0.289863
1023,0.289152,-0.01222,-0.396722
1024,0.372451,0.103184,-0.288585
1025,0.521302,0.091748,-0.318003
1026,0.729236,0.255103,-0.520021
1027,0.671714,0.462338,-0.236542
1028,0.565548,0.493634,-0.03904
1029,0.635186,0.341818,-0.506804
1030,0.677069,0.286327,-0.790914
1031,0.526124,0.517067,-0.580209
1032,0.336447,0.870007,0.146967
1033,0.15747,0.992322,0.277068
1034,0.032925,0.720197,-0.358288
1035,-0.16868,0.708006,-0.221764
1036,-0.626342,0.713722,0.113072
1037,-0.637238,0.577477,0.028841
1038,-0.430372,0.270779,-0.150189
1039,-0.000709,-0.015585,-0.187866
1040,0.081296,0.005145,0.004543
1041,0.133398,-0.06631,0.347523
1042,0.115636,-0.168294,0.248431
1043,-0.034468,-0.255698,0.14651
1044,-0.219043,-0.345798,0.20966
1045,-0.234482,-0.499872,0.319287
1046,-0.142275,-0.634762,0.303523
1047,-0.037595,-0.757039,0.207478
1048,-0.025407,-0.852586,0.117462
1049,-0.076999,-0.95741,0.022634
1050,-0.082797,-1.014421,-0.087838
1051,0.052796,-0.882953,-0.158298
1052,0.088472,-0.612091,-0.432487
1053,0.393977,0.229997,-1.035974
1054,0.533445,1.863928,-1.149441
1055,0.361647,1.471875,-1.122475
1056,0.022352,0.338686,-0.765403
1057,-0.376627,-0.568042,-0.281028
1058,-0.263527,-0.735169,-0.368839
1059,-0.120718,0.95878,-1.302086
1060,-0.881335,2.708035,-0.658497
1061,-0.842112,2.167463,0.323317
1062,0.009516,-0.592424,1.412232
1063,-0.427276,-1.076173,-0.139327
1064,-0.219374,-0.815485,-0.217272
1065,-0.336807,-0.29625,1.000855
1066,-0.694272,-0.018559,0.328877
1067,-0.602977,0.154127,-0.015642
1068,0.388583,0.242657,0.051143
1069,0.523499,0.205606,0.184065
1070,0.653801,0.244217,0.061556
1071,0.222053,-0.021839,-0.254447
1072,0.092282,-0.117274,-0.288754
1073,0.007634,-0.202556,-0.265207
1074,-0.133465,-0.316329,-0.225441
1075,-0.149701,-0.195289,-0.185565
1076,-0.089755,-0.141501,-0.181683
1077,0.074949,-0.03802,-0.564912
1078,0.14411,0.098434,-0.590057
1079,0.158218,0.176454,-0.443921
1080,0.402891,0.144702,-0.341347
1081,0.732189,0.380319,-0.567979
1082,0.743408,0.472644,-0.394086
1083,0.681058,0.466197,-0.115335
1084,0.629842,0.451573,-0.498503
1085,0.57855,0.52908,-0.518404
1086,0.45531,0.654668,-0.342393
1087,0.252351,0.593302,-0.255335
1088,0.015079,0.645339,-0.6845
1089,-0.243517,0.670779,-0.389289
1090,-0.817917,0.788699,0.163634
1091,-0.973803,0.812894,0.036166
1092,-0.904754,0.582597,-0.168606
1093,-0.581195,0.21593,-0.251115
1094,-0.382884,0.092967,-0.184132
1095,0.191695,-0.081629,0.257417
1096,0.407096,-0.091842,0.058984
1097,0.290146,-0.182477,-0.098033
1098,-0.079396,-0.296967,0.174757
1099,-0.22899,-0.439341,0.41754
1100,-0.183479,-0.564361,0.504549
1101,-0.046441,-0.689755,0.406784
1102,-0.025609,-0.881374,0.207353
1103,-0.088576,-0.947796,0.176507
1104,-0.11426,-1.057841,-0.008045
1105,-0.070125,-1.064849,-0.087238
1106,-0.090019,-0.918321,-0.308399
1107,0.279238,-0.09675,-1.020484
1108,0.515431,0.440712,-1.312024
1109,0.56665,1.440183,-1.161276
1110,0.171115,0.794299,-0.346535
1111,0.120529,0.269391,-0.398433
1112,-0.215185,0.654507,-0.558384
1113,-1.497522,2.144351,-0.720842
1114,-0.275584,-0.282912,0.022228
1115,0.197747,-0.858137,0.384991
1116,-0.301113,-1.344339,0.37345
1117,-0.334361,-0.585005,0.071845
1118,-0.054624,-0.246642,0.316581
1119,-0.895048,0.451879,0.837624
1120,-0.887007,0.421725,0.734574
1121,0.343687,-0.12672,0.050361
1122,0.596197,-0.055076,-0.560263
1123,0.319578,0.005557,-0.353103
1124,0.169249,-0.040617,-0.17079
1125,-0.05453,-0.221629,0.042575
1126,-0.160202,-0.242095,0.193782
1127,-0.112478,-0.170924,0.166144
1128,0.039564,-0.001228,0.10014
1129,0.315623,0.301883,-0.301727
1130,0.386502,0.261978,-0.381291
1131,0.241997,0.046998,-0.309888
1132,0.09447,-0.172776,-0.161356
1133,-0.009245,-0.186232,-0.055642
1134,0.033706,-0.006354,-0.175102
1135,0.10843,0.152004,-0.248803
1136,0.195111,0.132497,-0.128062
1137,0.360684,0.286244,0.028824
1138,0.684835,0.508389,0.112785
1139,1.037361,0.61397,-0.178643
1140,1.213035,0.502375,-0.402495
1141,0.831967,0.418848,-0.479036
1142,0.72239,0.449196,-0.482833
1143,0.494568,0.707703,-0.31034
1144,0.516918,0.555845,-0.428315
1145,0.451653,0.501545,-0.375632
1146,0.160434,0.455623,-0.340469
1147,-0.318582,0.587527,0.1015
1148,-0.320821,0.524163,0.338178
1149,-0.275461,0.359798,0.089012
1150,-0.208299,0.276476,-0.044895
1151,0.036691,0.138309,-0.29339
1152,0.275289,0.087171,-0.432667
1153,0.107818,-0.034634,-0.116352
1154,0.025908,-0.13842,0.235741
1155,0.129982,-0.268402,0.324206
1156,0.080836,-0.21903,0.247912
1157,0.076431,-0.128488,0.162252
1158,0.072521,-0.11417,0.307711
1159,0.072169,-0.171624,0.308826
1160,0.060499,-0.408502,0.178026
1161,-0.076385,-0.658836,0.027377
1162,-0.143338,-0.840272,-0.036854
1163,-0.069109,-0.726329,-0.15807
1164,0.069805,-0.495575,-0.307297
1165,0.329998,-0.363745,-0.407591
1166,0.589971,-0.077279,-0.5936
1167,0.666722,0.476465,-0.902688
1168,0.648212,1.101904,-0.809795
1169,0.723471,1.302537,-0.594102
1170,0.74329,0.324888,-0.390401
1171,0.560951,-0.828723,-0.050155
1172,0.266519,-0.732123,0.034651
1173,-0.663141,0.501019,0.199725
1174,-1.839196,1.23817,0.541281
1175,-0.887011,0.578578,-0.066668
1176,-0.056472,-0.242409,-0.227613
1177,0.220211,-0.859018,0.236667
1178,0.233345,-0.987063,0.362907
1179,-0.094222,-0.567181,0.715616
1180,-0.166989,0.060175,0.081165
1181,0.144835,0.364965,-0.079617
1182,0.543376,0.703798,0.011574
1183,0.672791,0.177761,0.219552
1184,0.673062,-0.037968,-0.011632
1185,0.337798,-0.32203,-0.137177
1186,-0.047069,-0.368638,-0.177344
1187,-0.101762,-0.309132,-0.25611
1188,-0.203519,-0.19722,-0.356796
1189,-0.117843,-0.13628,-0.389463
1190,0.046162,-0.015722,-0.329596
1191,0.323941,0.33877,-0.147607
1192,0.419611,0.423925,-0.122398
1193,0.668598,0.41384,-0.220208
1194,0.885028,0.391683,-0.518209
1195,0.711715,0.443753,-0.135016
1196,0.624638,0.452022,-0.014577
1197,0.699733,0.453196,-0.441594
1198,0.606107,0.579812,-0.40218
1199,0.457037,0.690291,-0.244619
1200,0.157081,0.700076,-0.166814
1201,0.042765,0.508412,-0.394065
1202,-0.045467,0.412855,-0.479618
1203,-0.564767,0.77808,0.10959
1204,-0.660095,0.608325,0.223582
1205,-0.642066,0.509552,0.103173
1206,-0.33224,0.208054,-0.204883
1207,-0.177899,0.042195,-0.136988
1208,0.203937,-0.150131,0.280177
1209,0.405692,-0.211584,0.129772
1210,0.369199,-0.23842,0.023333
1211,0.141294,-0.355115,0.243705
1212,-0.093661,-0.424905,0.397569
1213,-0.038083,-0.437324,0.351488
1214,-0.096894,-0.435944,0.21128
1215,-0.248054,-0.48765,0.211324
1216,-0.358084,-0.637829,0.258217
1217,-0.404712,-0.774403,0.147802
1218,-0.07473,-0.95768,-0.176515
1219,0.300892,-0.533268,-0.543458
1220,0.500838,-0.248703,-0.769404
1221,0.733855,0.59229,-1.258115
1222,0.536235,1.65747,-0.972362
1223,0.436553,1.965445,-0.732939
1224,0.893661,0.376855,-0.321244
1225,0.432286,-0.322875,-0.172883
1226,-0.090608,-0.055631,-0.349281
1227,-1.143602,0.653602,0.557554
1228,-1.033272,0.277935,0.583946
1229,-0.611387,-0.214302,0.25431
1230,-0.375861,-0.519126,-0.278109
1231,-0.161523,-0.746739,0.233803
1232,-0.216838,-0.680994,0.311558
1233,-0.382708,-0.445765,0.299763
1234,-0.293948,-0.16097,0.04688
1235,0.213036,0.15789,0.082265
1236,0.467269,0.658043,0.337516
1237,0.940098,0.201612,-0.161129
1238,0.770077,-0.052745,-0.394732
1239,0.357098,-0.215577,-0.198671
1240,-0.037842,-0.311932,-0.137096
1241,-0.138675,-0.271993,-0.24157
1242,-0.078676,-0.171024,-0.359211
1243,0.004926,0.032695,-0.308042
1244,0.090354,0.082305,-0.289667
1245,0.386356,0.30907,-0.293647
1246,0.50732,0.329028,-0.323387
1247,0.612287,0.32464,-0.379116
1248,0.810741,0.307529,-0.429636
1249,0.810646,0.339534,-0.307591
1250,0.591868,0.371269,-0.109405
1251,0.547297,0.325699,-0.38681
1252,0.538233,0.313769,-0.529059
1253,0.328956,0.573742,-0.436063
1254,0.167956,0.663872,-0.344184
1255,0.079726,0.637185,-0.367323
1256,-0.284741,0.533572,-0.09076
1257,-0.549583,0.656271,0.259151
1258,-0.653979,0.748585,0.28728
1259,-0.537162,0.62965,0.020307
1260,-0.32088,0.317084,-0.304692
1261,-0.05926,0.056118,-0.327304
1262,0.057936,-0.013706,0.02373
1263,0.23057,-0.090599,0.252889
1264,0.180793,-0.165455,0.10929
1265,0.046984,-0.303347,0.180143
1266,-0.068719,-0.453561,0.34362
1267,-0.015057,-0.58747,0.368188
1268,0.014344,-0.635484,0.339868
1269,0.025201,-0.740157,0.224448
1270,-0.166515,-0.756377,0.036167
1271,-0.230563,-0.75779,0.035121
1272,-0.311303,-0.819639,-0.023538
1273,-0.161238,-0.687003,-0.15729
1274,-0.084209,-0.567308,-0.310025
1275,0.151141,-0.153791,-0.649083
1276,0.654588,0.808858,-1.304835
1277,0.819637,1.8362,-1.024124
1278,0.797597,1.304028,-0.45382
1279,0.60395,0.032248,-0.580566
1280,0.577753,-0.275815,-0.496234
1281,0.108507,0.182429,0.121719
1282,-0.972619,0.610335,0.533035
1283,-1.160504,0.50543,0.435641
1284,-1.123861,0.23225,-0.216577
1285,-0.177955,-0.492028,0.105641
1286,-0.197769,-0.597916,0.432253
1287,-0.209047,-0.51918,0.547312
1288,-0.348556,-0.236313,0.519048
1289,-0.31236,-0.093841,0.271097
1290,0.474952,0.397272,0.227091
1291,0.585847,0.463028,0.304672
1292,0.673215,0.495579,0.284067
1293,0.461523,0.011391,-0.376968
1294,0.333585,-0.101933,-0.338607
1295,0.153788,-0.287859,-0.17744
1296,-0.079665,-0.290376,-0.299351
1297,-0.080222,-0.257648,-0.310327
1298,-0.050551,-0.162819,-0.324197
1299,0.233076,-0.044817,-0.297699
1300,0.334667,-0.053161,-0.296535
1301,0.420453,-0.036044,-0.335742
1302,0.451595,0.012355,-0.204085
1303,0.415267,-0.002277,-0.236084
1304,0.345667,0.045299,-0.109421
1305,0.284502,0.106799,-0.058374
1306,0.387616,0.110627,-0.024049
1307,0.437635,0.154766,-0.030762
1308,0.30635,0.096296,-0.18874
1309,0.174684,0.12771,-0.254788
1310,0.022556,0.317218,-0.119509
1311,-0.085972,0.534413,-0.165041
1312,-0.291164,0.449066,-0.227775
1313,-0.424207,0.325402,-0.168735
1314,-0.684065,0.367868,-0.175957
1315,-0.455479,0.117878,-0.090551
1316,-0.283442,0.077973,-0.111744
1317,-0.030515,0.086067,-0.12759
1318,-0.020139,0.139035,-0.071329
1319,-0.030278,0.053759,0.030025
1320,-0.238165,-0.003087,0.053624
1321,-0.134175,-0.156218,-0.041808
1322,-0.070457,-0.630202,-0.113331
1323,0.190091,-0.541577,-0.033436
1324,0.109239,-0.451233,0.017778
1325,-0.080002,-0.43316,-0.302072
1326,0.117731,-0.430219,-0.244303
1327,0.003301,0.190734,-0.729965
1328,0.045689,0.611858,-0.873182
1329,0.404748,1.027273,-0.62145
1330,0.407576,0.258908,-0.084899
1331,0.230798,-0.04742,0.175331
1332,-0.183692,-0.401772,0.111459
