,userAcceleration.x,userAcceleration.y,userAcceleration.z
0,-0.579893,-0.527167,1.1576
1,-0.324598,-0.434438,0.837225
2,-0.351281,-0.306359,0.800727
3,-0.307226,-0.076114,0.821129
4,-0.000836,0.485637,0.89196
5,0.216584,0.49213,0.879293
6,0.316867,0.432195,0.306865
7,0.753878,0.187402,-0.524505
8,0.657223,0.032835,-0.261323
9,0.504452,-0.15374,-0.217215
10,0.380451,-0.212981,-0.06642
11,0.202519,-0.016546,0.053975
12,0.070386,-0.072092,-0.009872
13,0.046237,-0.275083,0.301969
14,0.16579,-0.231066,0.326232
15,0.252474,-0.141728,-0.076264
16,0.278053,0.040428,-0.316514
17,0.286401,0.129953,-0.50022
18,0.267837,0.46971,-0.676544
19,0.269318,0.576657,-0.764953
20,0.589894,0.516963,-0.56618
21,0.813255,0.542444,-0.223763
22,0.854321,0.525496,-0.236144
23,0.781271,0.522125,-0.477246
24,0.546611,0.481909,-0.818485
25,0.370726,0.500913,-0.966095
26,0.021169,0.63938,-0.532884
27,0.046538,0.741203,0.672025
28,-0.044738,0.788152,0.662702
29,-0.247589,0.922827,0.741768
30,-0.490314,0.774062,0.19931
31,-0.74386,0.066431,-0.330388
32,-0.359332,-0.013553,0.242169
33,0.050627,-0.119248,0.357733
34,0.176179,-0.252042,0.749672
35,0.430782,-0.41817,0.795542
36,0.587581,-0.536721,0.803696
37,0.443574,-0.512942,0.779345
38,0.328084,-0.544077,0.761848
39,0.013301,-0.712441,0.74127
40,-0.177682,-0.719886,0.750787
41,-0.201892,-0.743485,0.780795
42,-0.144963,-0.741769,0.640317
43,0.105901,0.065872,-1.144125
44,0.266185,1.026711,-2.396412
45,0.034838,2.042458,-1.259706
46,0.036905,-0.091271,-0.696058
47,-0.000137,-0.362337,-0.748667
48,-0.453604,0.037401,-0.273469
49,-0.301923,1.148961,-0.262861
50,-0.256938,0.95583,0.784672
51,-0.151527,-0.351603,0.77918
52,-0.31359,-0.774834,1.05073
53,-0.236228,-0.415489,1.079866
54,-0.437686,-0.056049,0.915071
55,-0.380215,0.117981,0.746922
56,-0.255077,0.547923,1.023365
57,0.183221,0.502975,0.871399
58,0.374885,0.351532,0.581275
59,0.701638,0.153872,-0.724302
60,0.704939,0.151519,-0.061351
61,0.401828,-0.218992,-0.304384
62,0.257356,-0.26131,-0.187144
63,0.123236,-0.068603,0.089531
64,0.116913,-0.069792,0.079895
65,0.216011,-0.245647,0.21373
66,0.324743,-0.200882,-0.125369
67,0.372588,-0.056521,-0.240562
68,0.304532,0.263571,-0.331142
69,0.249335,0.298599,-0.600357
70,0.199943,0.425203,-0.610307
71,0.571163,0.576786,-0.383413
72,0.781309,0.578685,-0.325527
73,0.735067,0.547518,-0.356457
74,0.638936,0.558207,-0.722965
75,0.407191,0.622719,-0.899116
76,0.437021,0.506471,-0.958425
77,0.268356,0.454509,-0.443973
78,0.186935,0.756991,0.586128
79,0.222459,0.677848,0.713336
80,-0.139238,0.85153,0.487745
81,-0.472794,1.4368,0.40573
82,-0.626028,1.32755,0.321579
83,-0.759724,0.272224,0.13287
84,-0.434813,-0.129782,0.412003
85,-0.160224,-0.102101,0.490328
86,0.118572,-0.31,0.818745
87,0.609635,-0.475412,0.8929
88,0.637757,-0.564117,0.804046
89,0.652249,-0.469257,0.82672
90,0.2116,-0.581399,0.701176
91,-0.013304,-0.671751,0.737424
92,-0.082417,-0.740922,0.823207
93,-0.09987,-0.701435,0.765121
94,0.1443,0.03933,-1.729831
95,0.223019,1.062383,-2.736666
96,0.204343,1.320763,-1.27694
97,0.356854,0.24727,-0.48709
98,0.161172,-0.450914,-0.258354
99,0.330618,-0.489654,-0.395934
100,-0.068811,-0.162852,0.758772
101,-1.326396,0.581352,0.352868
102,-1.075859,1.613851,-0.450417
103,-0.426181,-0.605031,1.314551
104,-0.394494,-0.663839,0.694227
105,-0.426146,-0.248715,1.274275
106,-0.328817,-0.078227,1.009563
107,-0.232269,0.272804,0.974652
108,0.238044,0.869648,1.095011
109,0.432666,1.011945,0.51369
110,0.895719,0.683091,-0.528912
111,0.801839,-0.134255,-0.102359
112,0.633171,-0.217911,-0.168095
113,0.36985,-0.224768,0.037902
114,0.014535,0.0057,-0.110667
115,0.009366,-0.109897,0.084236
116,0.036915,-0.275971,0.258413
117,0.268181,-0.345472,0.196507
118,0.33957,-0.30716,0.078902
119,0.2887,0.019961,-0.290141
120,0.238999,0.169661,-0.421694
121,0.260188,0.332478,-0.521778
122,0.32978,0.618951,-0.513839
123,0.587593,0.634894,-0.452539
124,0.742069,0.468479,-0.378033
125,0.759452,0.506113,-0.327167
126,0.661506,0.63775,-0.486945
127,0.555491,0.538348,-0.677296
128,0.596682,0.502423,-0.634003
129,0.376573,0.560734,-0.611074
130,-0.014741,0.5617,0.143954
131,0.037996,0.575428,0.887897
132,-0.094196,0.647566,0.487847
133,-0.454927,1.055467,0.242067
134,-0.75028,1.078662,0.190526
135,-0.860488,0.221687,-0.007171
136,-0.568026,-0.124747,0.433039
137,-0.090002,-0.241451,0.488423
138,0.127856,-0.303896,0.664412
139,0.416528,-0.484457,0.822586
140,0.604985,-0.513258,0.952204
141,0.766732,-0.633729,0.80737
142,0.560861,-0.556717,0.722771
143,0.191403,-0.673149,0.787406
144,-0.018098,-0.748445,0.804845
145,-0.081605,-0.807389,0.836395
146,-0.080856,-0.733887,0.715997
147,-0.058481,-0.591446,0.450652
148,0.132455,1.095788,-2.835199
149,0.185235,2.048225,-0.962639
150,-0.037374,-0.078497,-0.523795
151,-0.079092,-0.463441,-0.524489
152,-0.172925,-0.535928,-0.245709
153,-0.85736,0.569372,0.431354
154,-0.916681,0.600897,0.61111
155,-0.393431,0.800708,-0.177651
156,-0.108604,-0.429582,1.434552
157,-0.04896,-0.316647,1.097841
158,-0.073392,-0.112267,0.949395
159,0.038875,0.284667,1.067568
160,0.274202,0.599749,1.185626
161,0.349836,0.633783,1.075537
162,0.607234,0.386116,-0.475459
163,0.543032,0.19178,-0.197646
164,0.500831,0.038635,-0.177102
165,0.125446,-0.214411,-0.309188
166,0.20367,-0.010801,-0.08674
167,0.072921,-0.078536,-0.015263
168,0.131046,-0.284494,0.397846
169,0.284075,-0.387835,0.259702
170,0.323825,-0.261227,-0.139291
171,0.267803,0.127866,-0.412419
172,0.202365,0.39366,-0.42115
173,0.207221,0.56462,-0.59246
174,0.288908,0.688396,-0.685861
175,0.805557,0.657762,-0.484163
176,0.851102,0.633658,-0.330527
177,0.758203,0.547577,-0.315347
178,0.610863,0.357009,-0.796803
179,0.378965,0.412986,-0.908658
180,0.392384,0.402605,-0.922841
181,0.333091,0.736939,-0.04502
182,0.298722,0.888693,0.904412
183,0.145203,0.663222,0.645938
184,-0.221025,0.910585,0.733596
185,-0.562186,1.551062,0.478848
186,-0.905085,0.484773,-0.134917
187,-0.942204,-0.120617,0.092143
188,-0.098546,-0.055238,0.388665
189,0.058779,-0.066563,0.499766
190,0.29546,-0.229645,0.965418
191,0.620785,-0.374693,1.083219
192,0.714987,-0.431475,0.983473
193,0.51302,-0.382182,0.85464
194,0.162902,-0.663991,0.795637
195,-0.042236,-0.760267,0.862371
196,-0.066809,-0.790604,0.86568
197,-0.154566,-0.735021,0.315682
198,-0.024615,-0.103826,-1.127182
199,-0.080803,0.579531,-1.68711
200,-0.027953,1.319522,-1.288869
201,0.194878,0.417558,-0.545835
202,0.170432,0.022233,-0.452894
203,0.322908,-0.384039,-0.182988
204,-0.342336,0.155726,0.569938
205,-0.690279,0.160054,0.757204
206,-1.045592,0.763309,-0.033738
207,-0.508689,-0.029219,0.972502
208,-0.283432,-0.420939,0.845878
209,-0.295371,-0.353964,0.799246
210,-0.114738,-0.146976,0.958447
211,-0.105324,-0.164599,0.902819
212,0.026003,0.478235,1.374372
213,0.341162,0.555035,0.875151
214,0.4207,0.535351,0.357425
215,0.63808,0.23557,-0.291364
216,0.463191,-0.132538,-0.26898
217,0.308298,-0.191648,-0.189581
218,0.129955,-0.022664,0.090354
219,0.091131,-0.176522,0.165703
220,0.230044,-0.230707,0.351345
221,0.303918,-0.304686,0.226689
222,0.340903,-0.157744,-0.073327
223,0.304859,0.041889,-0.376728
224,0.303166,0.35171,-0.363469
225,0.243971,0.47636,-0.566732
226,0.252356,0.599809,-0.692115
227,0.661574,0.641083,-0.525961
228,0.717169,0.618043,-0.436441
229,0.762466,0.794893,-0.218252
230,0.812705,0.702554,-0.611753
231,0.65079,0.509117,-0.596271
232,0.34304,0.47662,-0.498161
233,0.134445,0.444066,-0.472239
234,-0.086319,0.645152,0.828509
235,-0.412418,0.959058,0.560113
236,-0.570457,1.192728,0.360062
237,-0.872759,0.819219,0.030659
238,-0.770731,-0.063944,0.214319
239,-0.155303,-0.112374,0.381894
240,0.146701,-0.043618,0.656319
241,0.358521,-0.248538,0.747548
242,0.567629,-0.383675,0.969772
243,0.588202,-0.431068,0.821876
244,0.491156,-0.404271,0.776663
245,0.330952,-0.552198,0.757476
246,0.086531,-0.693052,0.797759
247,-0.049336,-0.767025,0.827084
248,-0.045591,-0.785194,0.81142
249,-0.014359,-0.682317,0.650684
250,0.028331,-0.5069,0.221313
251,0.043502,1.366714,-1.96083
252,0.011801,1.70864,-1.266647
253,0.099278,0.455134,-0.543095
254,0.021553,-0.390418,-0.61652
255,0.094685,-0.502897,-0.181486
256,-0.017929,-0.235495,-0.000391
257,-0.665423,0.661204,0.50118
258,-0.551206,0.709219,-0.174952
259,-0.432314,0.016499,0.649946
260,-0.188197,-0.537998,1.338838
261,-0.097925,-0.370999,0.864426
262,-0.215571,-0.083109,0.890324
263,-0.270483,0.167993,1.003148
264,0.001388,0.566983,1.14865
265,0.342006,0.51989,0.655126
266,0.454992,0.46135,0.098055
267,0.74956,0.237228,-0.542791
268,0.624596,0.073262,-0.012456
269,0.209856,-0.339223,-0.174186
270,0.38303,-0.082917,-0.257288
271,0.249596,0.033146,-0.249366
272,0.141329,-0.222769,0.404841
273,0.234145,-0.250548,0.362607
274,0.268338,-0.214089,0.024511
275,0.198653,-0.039816,-0.237536
276,0.071538,0.201174,-0.329646
277,0.116236,0.269262,-0.341906
278,0.197185,0.377987,-0.496347
279,0.381882,0.511426,-0.619623
280,0.852922,0.600608,-0.406276
281,0.866284,0.566242,-0.314547
282,0.76325,0.64858,-0.333108
283,0.498394,0.54341,-0.624009
284,0.516975,0.42424,-0.880573
285,0.371058,0.525179,-0.587806
286,0.310593,0.642464,-0.088824
287,0.202054,0.596254,0.802394
288,0.00076,0.643178,0.547333
289,-0.219018,0.790868,0.575018
290,-0.596144,0.761537,0.123408
291,-0.855252,0.204627,-0.150756
292,-0.90917,-0.017307,0.113949
293,-0.06692,-0.131097,0.390933
294,0.105865,-0.152703,0.470932
295,0.314361,-0.402691,0.915266
296,0.663911,-0.550573,0.929869
297,0.70589,-0.483376,0.85912
298,0.450894,-0.45168,0.728563
299,0.282578,-0.613812,0.740745
300,0.08698,-0.744812,0.743366
301,0.039685,-0.820647,0.786969
302,0.015617,-0.823192,0.824351
303,-0.067918,-0.208605,-0.607943
304,0.01172,1.745938,-2.92507
305,0.146706,2.339469,-1.89667
306,0.030818,0.276495,-0.579675
307,-0.488579,0.223215,-0.298526
308,-0.784099,0.516182,-0.13335
309,-0.386389,1.580486,-0.191017
310,-0.354913,-0.211773,1.173858
311,-0.336695,-1.326405,1.403465
312,-0.309622,-1.107339,1.1144
313,-0.511624,0.108721,1.216759
314,-0.455135,0.273574,0.817691
315,-0.515056,0.384581,0.592847
316,-0.025301,0.759622,0.912067
317,0.401195,0.64502,0.876645
318,0.826312,0.413521,-0.55667
319,1.142193,0.1398,0.085464
320,0.672268,-0.114814,-0.280621
321,0.547402,-0.180564,-0.446165
322,0.285419,-0.042645,0.087777
323,0.076054,0.040169,0.179384
324,-0.026345,-0.156141,0.364652
325,0.090542,-0.30933,0.133736
326,0.128787,-0.168527,-0.111724
327,0.136837,0.006597,-0.20605
328,0.186973,0.073378,-0.138096
329,0.263008,0.170287,-0.233622
330,0.412816,0.480636,-0.447826
331,0.464248,0.596938,-0.380388
332,0.632498,0.672385,-0.529541
333,0.848467,0.614296,-0.451539
334,0.873277,0.592374,-0.355523
335,0.681893,0.534458,-0.693569
336,0.395934,0.448167,-0.602252
337,0.20259,0.465884,-0.590301
338,0.143654,0.629141,-0.307588
339,-0.012544,0.62152,0.785525
340,-0.151009,0.566801,0.548904
341,-0.347934,0.78238,0.528865
342,-0.789527,0.795593,-0.023521
343,-0.995963,0.219888,-0.163117
344,-0.734907,-0.308265,0.336646
345,-0.00625,-0.150656,0.358923
346,0.193548,-0.125769,0.550719
347,0.395319,-0.295182,0.887645
348,0.691819,-0.423434,0.963132
349,0.707163,-0.337378,0.790629
350,0.439569,-0.384261,0.676835
351,0.205559,-0.507634,0.731501
352,-0.018633,-0.742447,0.787759
353,-0.01182,-0.794946,0.773071
354,0.035014,-0.812813,0.676367
355,0.044838,-0.317888,-0.080155
356,0.071907,0.050246,-1.047059
357,-0.211646,2.129758,-2.727346
358,-0.159676,1.36077,-1.055408
359,0.270636,0.004288,-0.6809
360,0.283433,-0.384344,-0.458843
361,-0.281968,0.322571,0.065816
362,-0.718939,1.434144,-0.229433
363,-0.613722,1.300004,0.116766
364,-0.442726,-1.059227,1.691517
365,-0.505506,-1.218511,1.498775
366,-0.259347,-0.578734,1.328341
367,-0.394598,0.006297,0.849238
368,-0.455364,0.145451,0.750191
369,0.03391,0.752563,1.194647
370,0.231268,0.781003,1.068499
371,0.565602,0.619899,-0.140621
372,1.042539,0.196831,0.137538
373,0.838412,-0.023685,0.011742
374,0.592839,-0.227674,-0.52751
375,0.415256,-0.011917,-0.087822
376,0.174543,0.006224,0.147132
377,-0.013842,-0.190774,0.333854
378,0.070168,-0.331707,0.245128
379,0.09335,-0.295121,0.087203
380,0.050718,-0.115332,-0.373777
381,0.159891,0.214896,-0.312926
382,0.294378,0.359104,-0.576636
383,0.385178,0.453859,-0.65966
384,0.677992,0.627438,-0.503198
385,0.882217,0.582689,-0.264583
386,0.874807,0.624561,-0.232434
387,0.807935,0.668808,-0.360441
388,0.579522,0.582654,-0.730104
389,0.255562,0.523738,-0.928017
390,-0.108236,0.619748,-0.654462
391,0.013232,0.70032,0.783811
392,0.040133,0.591158,0.737548
393,-0.25841,0.802493,0.526985
394,-0.591452,1.108632,0.244808
395,-0.71658,0.915062,0.050944
396,-0.842956,-0.002127,0.086505
397,-0.298017,-0.262932,0.419502
398,-0.052034,-0.22738,0.423915
399,0.232878,-0.191607,0.75688
400,0.448385,-0.405631,0.958996
401,0.661008,-0.471137,0.928851
402,0.583167,-0.46114,0.858843
403,0.316385,-0.553043,0.778792
404,0.113932,-0.641567,0.782685
405,-0.050924,-0.67797,0.85521
406,-0.077717,-0.77834,0.849099
407,-0.02467,-0.650522,0.619295
408,-0.034504,-0.397015,0.235941
409,0.129175,1.779493,-3.504225
410,-0.089363,1.794689,-0.557212
411,0.014041,0.166984,-0.628458
412,0.033685,-0.802066,-0.555483
413,-0.467484,-0.224601,-0.029854
414,-0.815682,0.712803,0.34547
415,-0.597251,0.970287,0.556803
416,-0.250958,0.887669,-0.264476
417,-0.057364,-0.583507,1.398546
418,0.022709,-0.249676,1.071061
419,-0.030683,-0.176153,0.952819
420,-0.100524,0.513799,1.075267
421,0.001388,0.663065,1.088257
422,0.2748,0.651417,0.869044
423,0.550915,0.318918,-0.383332
424,0.701664,0.127471,-0.570869
425,0.575719,0.000431,-0.067846
426,0.136229,-0.239138,-0.245183
427,0.165774,-0.113505,-0.234091
428,0.129993,-0.080851,0.061275
429,0.296231,-0.30572,0.249555
430,0.247121,-0.254948,0.117787
431,0.224706,-0.223108,0.061623
432,0.164812,0.040802,-0.205065
433,0.180187,0.279489,-0.328561
434,0.21353,0.344363,-0.468276
435,0.279378,0.567087,-0.632322
436,0.657782,0.602556,-0.658949
437,0.790443,0.693217,-0.562383
438,0.718796,0.578821,-0.275834
439,0.601446,0.739216,-0.625332
440,0.539443,0.476556,-0.819604
441,0.41418,0.507733,-0.785379
442,0.074163,0.648536,-0.162159
443,0.186504,0.752659,0.893774
444,0.067108,0.752487,0.646693
445,-0.337156,1.031971,0.575281
446,-0.592871,1.11742,0.299362
447,-0.712984,0.344482,0.124879
448,-0.559305,-0.032135,0.174985
449,-0.107749,-0.139925,0.389265
450,0.07034,-0.121883,0.604793
451,0.343961,-0.235352,0.874715
452,0.529526,-0.458475,1.115392
453,0.648325,-0.485598,0.891008
454,0.41828,-0.564264,0.804462
455,0.263275,-0.64834,0.806888
456,0.149763,-0.666889,0.853734
457,-0.150371,-0.757372,0.943301
458,-0.136773,-0.794509,0.846165
459,-0.112164,-0.709492,0.609021
460,-0.119123,1.069402,-2.062738
461,-0.176457,2.062219,-1.849696
462,-0.079037,1.173208,-0.973031
463,0.080429,-0.177086,-0.630199
464,0.145725,-0.687252,-0.473818
465,-0.042157,0.155723,0.555435
466,-0.236276,0.48871,0.918956
467,-0.584775,1.428379,-0.787023
468,-0.392265,0.395527,0.88784
469,-0.014338,-0.542647,1.142301
470,0.059999,-0.58532,1.032031
471,-0.099641,-0.395569,0.888708
472,-0.145565,-0.209311,0.886099
473,-0.173143,0.493465,1.177222
474,0.220187,0.545516,0.793711
475,0.41125,0.423948,-0.036714
476,0.623369,0.307771,-0.717123
477,0.465424,-0.119895,-0.123429
478,0.229087,-0.242299,-0.229629
479,0.121328,-0.223394,-0.070228
480,0.065016,0.028212,-0.1495
481,0.093961,-0.273086,0.401266
482,0.218871,-0.321278,0.347683
483,0.169348,-0.230278,0.046272
484,0.153646,-0.064559,-0.269377
485,0.176629,0.241365,-0.408493
486,0.373344,0.408846,-0.524648
487,0.558627,0.5196,-0.699906
488,0.741068,0.637183,-0.437081
489,0.800662,0.651158,-0.254689
490,0.790217,0.577215,-0.214763
491,0.663551,0.691373,-0.477553
492,0.477609,0.534508,-0.810279
493,0.351487,0.661842,-0.895264
494,0.048261,0.633428,-0.449688
495,0.099297,0.631164,0.698245
496,0.065686,0.589751,0.710158
497,-0.314997,0.832652,0.687632
498,-0.635109,1.197081,0.36415
499,-0.807551,0.48937,-0.146327
500,-0.757087,-0.120946,0.110359
501,-0.126869,-0.140571,0.406772
502,0.112453,-0.119098,0.510123
503,0.377985,-0.18923,0.923859
504,0.620302,-0.403293,0.976027
505,0.663113,-0.263902,0.879018
506,0.601323,-0.253831,0.872262
507,0.184174,-0.569518,0.81196
508,-0.097628,-0.644835,0.825015
509,-0.197286,-0.771695,0.876645
510,-0.107711,-0.853367,0.795879
511,-0.034645,-0.503137,0.176713
512,0.077687,0.298226,-1.359978
513,0.055967,2.163518,-2.093354
514,-0.042994,1.81717,-1.425554
515,0.029302,-0.110946,-0.750328
516,0.037577,-0.375186,-0.404642
517,-0.06266,-0.15653,-0.127922
518,-0.463096,0.49037,1.118255
519,-0.504287,0.612956,0.24306
520,-0.625901,0.627078,0.155974
521,-0.145895,-0.289676,1.295877
522,0.006341,-0.469024,0.874248
523,-0.023914,-0.421318,0.712448
524,-0.094314,0.048034,0.963711
525,0.156289,0.40087,1.123516
526,0.328442,0.474768,0.921813
527,0.389958,0.331922,0.281677
528,0.680355,0.146176,-0.734381
529,0.438707,0.013501,-0.132063
530,0.222974,-0.294735,-0.268277
531,0.309102,-0.106004,-0.103797
532,0.083226,-0.116624,0.221818
533,0.132844,-0.14487,0.264892
534,0.168674,-0.174153,0.220254
535,0.243473,-0.120367,-0.057656
536,0.226817,-0.045176,-0.202376
537,0.24926,0.021616,-0.214641
538,0.35808,0.348402,-0.545797
539,0.391283,0.47201,-0.401496
540,0.569846,0.610343,-0.278763
541,0.769744,0.685193,-0.431434
542,0.750546,0.596026,-0.435883
543,0.688769,0.458266,-0.550736
544,0.236532,0.464155,-0.884053
545,0.311063,0.484443,-0.835279
546,0.308874,0.626085,-0.442439
547,0.305191,0.730029,0.418673
548,0.208315,0.597133,0.667478
549,-0.004847,0.684374,0.546178
550,-0.455646,1.278925,0.716793
551,-0.699401,1.097489,0.475447
552,-0.961361,-0.149707,-0.10769
553,-0.531083,-0.175176,0.275074
554,0.029983,-0.146743,0.454548
555,0.218114,-0.191794,0.907066
556,0.464482,-0.396179,1.085555
557,0.594592,-0.523101,0.905284
558,0.515175,-0.49963,0.884723
559,0.42151,-0.537658,0.815492
560,0.072951,-0.700456,0.803264
561,0.002942,-0.725704,0.837033
562,0.011431,-0.752057,0.858595
563,-0.002413,-0.429028,0.496949
564,-0.007587,0.149543,-0.84008
565,0.113023,2.605038,-3.792425
566,-0.137224,2.481629,-1.210122
567,0.192565,-0.122618,-0.620624
568,0.370347,-0.71242,-0.384091
569,0.00714,-0.412868,0.26643
570,-0.381577,0.374354,1.204454
571,-0.708032,0.747251,1.139986
572,-0.629137,1.326666,-1.186849
573,-0.257431,-0.174978,1.468168
574,-0.064416,-0.393484,0.862758
575,-0.100586,-0.358101,0.756248
576,-0.207344,-0.09874,0.929669
577,-0.047579,0.289717,1.302525
578,0.143434,0.432588,1.122669
579,0.244875,0.443242,0.876631
580,0.652739,0.214772,-0.534832
581,0.67355,0.205292,-0.643293
582,0.372287,-0.118777,-0.221311
583,0.273628,0.002324,-0.303803
584,0.253578,0.035991,-0.378247
585,0.136883,-0.021151,-0.228599
586,0.269054,-0.316297,0.280248
587,0.276865,-0.300222,0.140479
588,0.272508,-0.239611,-0.044366
589,0.200231,0.279701,-0.398895
590,0.246065,0.367054,-0.501562
591,0.430588,0.359414,-0.685593
592,0.664993,0.447065,-0.451029
593,0.799093,0.68981,-0.246305
594,0.724318,0.576558,-0.178369
595,0.775703,0.512341,-0.375636
596,0.278011,0.649413,-0.897909
597,0.35084,0.637348,-0.788395
598,0.204622,0.575684,-0.300567
599,0.253983,0.667346,0.235836
600,0.163038,0.618537,0.585555
601,0.009881,0.635525,0.600406
602,-0.498036,1.17332,0.635958
603,-0.852186,0.546306,-0.122046
604,-0.946685,0.188763,-0.296794
605,-0.78606,-0.321793,0.162531
606,0.083936,-0.204811,0.514994
607,0.217473,-0.167264,0.700696
608,0.429422,-0.321267,0.977905
609,0.753857,-0.407057,1.038028
610,0.734823,-0.39477,0.945479
611,0.50734,-0.420907,0.75024
612,0.179748,-0.554845,0.831246
613,0.004415,-0.635249,0.912457
614,0.012322,-0.768717,0.90514
615,0.122417,-0.644223,0.572897
616,-0.048292,-0.062148,-0.547626
617,-0.262571,1.757927,-3.140951
618,-0.296565,1.597597,-0.962299
619,0.027087,-0.003825,-0.640756
620,0.150896,-0.629031,-0.508441
621,0.214909,-0.608706,0.067986
622,-0.284183,0.292206,1.030636
623,-0.429885,0.502707,1.335377
624,-0.650621,1.474564,-1.559476
625,-0.329016,0.168776,1.2503
626,0.05058,-0.50174,0.993233
627,0.053133,-0.41335,0.827699
628,-0.036753,-0.250677,0.922566
629,-0.023614,0.017039,1.028017
630,0.19479,0.386657,1.051355
631,0.325783,0.440602,0.750488
632,0.497044,0.339483,-0.488983
633,0.606811,0.239114,-0.640466
634,0.156112,-0.307146,-0.145886
635,0.144056,-0.312244,-0.176995
636,0.212022,0.049661,-0.316792
637,0.063853,-0.249337,0.265951
638,0.171724,-0.293735,0.168045
639,0.211596,-0.347104,0.157477
640,0.16207,-0.162554,-0.121601
641,0.145077,0.060699,-0.170606
642,0.139085,0.286848,-0.276455
643,0.454815,0.490334,-0.496449
644,0.586667,0.580871,-0.357635
645,0.847095,0.721081,-0.453974
646,0.783395,0.626956,-0.482068
647,0.64971,0.764254,-0.420888
648,0.41349,0.683199,-0.681477
649,0.366936,0.660133,-0.727712
650,0.119285,0.444721,-0.728775
651,-0.010686,0.595187,0.740371
652,0.05783,0.585604,0.706995
653,-0.119245,0.637241,0.685252
654,-0.810177,1.346735,0.244165
655,-0.988951,0.468569,-0.143732
656,-0.997952,0.100731,0.029054
657,-0.199194,-0.233112,0.368174
658,0.034462,-0.207085,0.550079
659,0.329709,-0.180156,0.837504
660,0.717303,-0.438435,0.969316
661,0.823051,-0.459053,1.017925
662,0.638819,-0.369406,0.824401
663,0.36579,-0.490194,0.795318
664,0.062718,-0.645366,0.843537
665,-0.060123,-0.68772,0.870933
666,-0.045944,-0.75769,0.826367
667,0.081213,-0.640459,0.633478
668,-0.020898,-0.115761,-0.274884
669,-0.116131,1.450487,-2.870877
670,0.000924,2.690611,-2.432464
671,-0.055305,0.356683,-0.760907
672,0.077017,-0.337341,-0.564631
673,-0.42313,0.010073,0.04252
674,-0.571708,0.808618,0.248172
675,-0.246009,1.583577,0.467564
676,-0.12913,-0.28808,0.815014
677,-0.104025,-0.807187,1.256249
678,-0.190265,-0.637434,0.934474
679,-0.381702,-0.168563,0.895255
680,-0.438596,0.031369,0.85469
681,-0.373337,0.367257,0.890001
682,0.220151,0.526078,0.783027
683,0.33731,0.451255,0.451223
684,0.58726,0.387912,-0.595081
685,0.669843,-0.042823,-0.023531
686,0.450507,-0.236561,-0.230723
687,0.351075,-0.222202,-0.242557
688,0.111165,-0.028786,0.120277
689,0.036743,-0.118247,0.310616
690,0.059221,-0.169453,0.360593
691,0.09964,-0.250692,-0.014539
692,0.125535,-0.143487,-0.137177
693,0.201364,0.196896,-0.242229
694,0.343687,0.348705,-0.551611
695,0.429349,0.473005,-0.459203
696,0.583236,0.638408,-0.457063
697,0.7503,0.65391,-0.359185
698,0.728542,0.60607,-0.319402
699,0.710373,0.655931,-0.332377
700,0.408312,0.416417,-0.764142
701,0.384589,0.452451,-0.809482
702,0.149273,0.554832,-0.581179
703,0.184767,0.670194,0.583048
704,0.121532,0.609595,0.900826
705,-0.121,0.696449,0.607395
706,-0.539954,1.234075,0.531195
707,-0.800254,0.731367,0.033916
708,-0.961163,0.07685,-0.027958
709,-0.503583,-0.247566,0.413107
710,0.059034,-0.18671,0.432499
711,0.205414,-0.232345,0.820471
712,0.457471,-0.319756,1.006085
713,0.773512,-0.42596,0.983254
714,0.726557,-0.360725,0.842627
715,0.259351,-0.562364,0.815329
716,0.077869,-0.634133,0.812966
717,-0.000917,-0.641253,0.854296
718,-0.060535,-0.808816,0.883379
719,0.055272,-0.697049,0.690996
720,0.060629,-0.424159,0.355781
721,0.249824,2.745424,-2.598676
722,-0.035043,2.035748,-1.058888
723,0.014919,0.354795,-0.718292
724,0.024267,-0.500584,-0.55017
725,-0.109026,-0.608529,-0.373719
726,-0.217013,0.165697,0.088607
727,-0.56061,0.789783,1.003479
728,-0.388995,0.914227,-0.383052
729,-0.459056,-0.151504,1.311135
730,-0.200162,-0.395089,1.250235
731,-0.220972,-0.320182,1.157408
732,-0.248896,-0.235564,1.006933
733,-0.423624,0.535774,1.177312
734,-0.186187,0.636804,1.207025
735,0.188383,0.553,0.9799
736,0.362354,0.378577,0.456346
737,0.747449,0.238148,-0.853037
738,0.566957,-0.002207,-0.03597
739,0.402505,-0.16778,-0.312831
740,0.390949,-0.080471,-0.205948
741,0.113917,-0.106233,0.088158
742,0.119737,-0.309637,0.34653
743,0.159538,-0.330886,0.260654
744,0.195382,-0.088198,-0.098013
745,0.169309,0.197291,-0.318527
746,0.202635,0.330858,-0.381766
747,0.446905,0.433095,-0.694433
748,0.498261,0.531848,-0.644329
749,0.788262,0.677525,-0.385219
750,0.740222,0.586284,-0.279266
751,0.874601,0.586993,-0.107155
752,0.558098,0.49192,-0.528892
753,0.294767,0.338808,-0.732152
754,0.131185,0.493489,-0.784186
755,-0.104593,0.639184,-0.216372
756,0.036092,0.627991,0.827394
757,0.052857,0.549859,0.656008
758,-0.344148,0.868432,0.642926
759,-0.663511,1.219291,0.501996
760,-0.949989,0.089015,-0.063898
761,-0.872102,-0.173971,0.171527
762,-0.41302,-0.198081,0.393724
763,0.408499,-0.142207,0.629257
764,0.422527,-0.105878,0.695202
765,0.743331,-0.422391,1.115522
766,0.56307,-0.370002,0.85773
767,0.478976,-0.369305,0.799801
768,0.285377,-0.535093,0.792875
769,0.028769,-0.644315,0.83261
770,0.006195,-0.671012,0.83403
771,-0.034709,-0.734297,0.795801
772,-0.040482,-0.478705,0.334322
773,-0.008606,0.250633,-1.363961
774,0.044114,2.693372,-2.46707
775,-0.273905,1.262685,-0.704001
776,-0.009013,-0.132601,-0.484309
777,-0.117057,-0.640992,-0.475416
778,-0.485482,-0.074925,0.052143
779,-0.394191,0.819143,0.272116
780,-0.254145,0.453311,0.22139
781,-0.228178,-0.180084,0.931157
782,-0.066262,-0.551001,1.532455
783,-0.084627,-0.06237,1.096313
784,-0.16277,0.065712,0.924237
785,-0.096986,0.651482,1.097595
786,0.268738,0.598088,0.971125
787,0.357334,0.511217,0.839324
788,0.615583,0.175484,-0.476524
789,0.704512,0.142772,-0.09826
790,0.341606,-0.079129,-0.125694
791,0.194353,-0.171788,-0.276012
792,0.31405,0.010324,-0.348916
793,0.167449,0.018084,0.058643
794,0.189758,-0.245902,0.290412
795,0.253258,-0.200367,0.237142
796,0.262997,-0.111923,-0.139446
797,0.266536,0.147997,-0.338077
798,0.305847,0.238399,-0.4054
799,0.31604,0.278814,-0.626773
800,0.353038,0.410838,-0.60741
801,0.562474,0.623771,-0.29632
802,0.725302,0.739633,-0.264478
803,0.787751,0.704105,-0.241571
804,0.817036,0.672884,-0.348215
805,0.43852,0.501702,-0.943556
806,0.263556,0.457831,-0.964312
807,0.190153,0.678527,-0.036376
808,0.199984,0.747907,0.808649
809,0.128503,0.685686,0.679908
810,-0.318701,1.009356,0.886022
811,-0.516894,1.190217,0.682893
812,-0.589044,0.623537,0.54045
813,-0.920947,-0.208729,-0.073897
814,-0.098451,-0.119085,0.376165
815,0.263743,-0.166341,0.639163
816,0.45258,-0.274819,0.846681
817,0.667783,-0.357265,0.961654
818,0.650991,-0.298832,0.927932
819,0.46372,-0.371735,0.868157
820,0.217411,-0.609388,0.921931
821,-0.032906,-0.739125,0.930402
822,-0.100431,-0.812463,0.892182
823,-0.012292,-0.623489,0.537274
824,0.0363,-0.046835,-0.28197
825,-0.231256,1.67629,-2.851567
826,-0.352411,2.494124,-2.03924
827,0.157962,0.201719,-0.768766
828,0.372205,-0.469524,-0.523035
829,0.207093,-0.334596,-0.302415
830,-0.300351,0.397992,0.485403
831,-0.659208,1.830764,0.468967
832,-0.626158,2.524356,-0.758955
833,0.062054,-1.032136,2.35652
834,0.111691,-0.866802,1.111997
835,-0.006277,-0.435368,0.659879
836,-0.304989,-0.061366,0.831808
837,-0.347681,0.487758,1.138341
838,-0.014014,0.444818,1.045998
839,0.164869,0.457244,0.674602
840,0.353788,0.291404,-0.208793
841,0.673879,-0.008825,-0.697937
842,0.499138,-0.130293,0.077971
843,0.247258,-0.052313,-0.419744
844,0.222928,0.063103,-0.110782
845,0.199795,-0.00989,0.187356
846,0.276205,-0.002014,0.167385
847,0.318825,-0.203269,-0.223161
848,0.331731,-0.197813,-0.217369
849,0.239286,0.190037,-0.299551
850,0.263232,0.370654,-0.432282
851,0.312985,0.405245,-0.446951
852,0.378505,0.442589,-0.420109
853,0.607822,0.616396,-0.561831
854,0.564818,0.573923,-0.500753
855,0.54539,0.577447,-0.389829
856,0.281587,0.55234,-0.975858
857,0.263935,0.538892,-0.950056
858,-0.034896,0.549785,-0.285454
859,0.051401,0.675691,0.846654
860,0.089361,0.620517,0.906471
861,-0.368107,1.048788,0.73228
862,-0.619307,1.208094,0.551022
863,-0.711324,0.238106,0.000425
864,-0.554086,-0.140968,0.237921
865,-0.0306,-0.122801,0.393489
866,0.128126,-0.180549,0.686659
867,0.353582,-0.246657,0.835323
868,0.580798,-0.479633,1.01502
869,0.721611,-0.538161,0.85154
870,0.509381,-0.469104,0.766496
871,0.219009,-0.659164,0.783184
872,0.013109,-0.68635,0.81565
873,-0.047842,-0.732604,0.869956
874,-0.028844,-0.703991,0.839877
875,0.036815,-0.368749,0.402176
876,0.064182,1.716517,-3.156662
877,0.006649,1.842519,-0.987489
878,-0.014503,0.243768,-0.622036
879,0.104581,-0.608821,-0.285268
880,-0.450762,-0.273185,0.377922
881,-0.913221,0.676164,0.475056
882,-1.031219,1.308141,-0.167461
883,-0.449673,1.241263,-0.227819
884,0.193108,-0.679526,1.524563
885,0.16455,-0.407676,1.018954
886,0.025077,-0.047122,0.906497
887,0.060262,0.423293,1.110187
888,0.259121,0.527027,1.084761
889,0.35517,0.414009,0.760902
890,0.516698,0.286699,-0.338314
891,0.474826,0.084081,-0.266687
892,0.157863,-0.21975,-0.094023
893,-0.031133,-0.169432,-0.150856
894,0.210622,0.088239,-0.493171
895,0.132384,-0.199196,0.335322
896,0.308519,-0.283065,0.387275
897,0.319538,-0.305618,0.110158
898,0.182109,0.062265,-0.481283
899,0.179832,0.243633,-0.407514
900,0.150209,0.292865,-0.224196
901,0.329587,0.380016,-0.492616
902,0.345791,0.545866,-0.481778
903,0.524974,0.622665,-0.500773
904,0.731918,0.483969,-0.402129
905,0.734827,0.475153,-0.361294
906,0.607081,0.744356,-0.46456
907,0.412546,0.291865,-0.723293
908,0.275776,0.26825,-0.71787
909,-0.063705,0.631289,0.090025
910,0.111374,0.732112,0.927191
911,0.063108,0.683717,0.557902
912,-0.324643,1.019234,0.475082
913,-0.567707,1.024239,0.380362
914,-0.668192,0.639539,0.368404
915,-0.664536,-0.104973,0.259149
916,-0.057961,-0.164401,0.436036
917,0.027204,-0.146565,0.537932
918,0.070187,-0.210755,0.680706
919,0.592406,-0.60344,0.915001
920,0.661904,-0.564084,0.852783
921,0.409011,-0.528075,0.666712
922,0.409053,-0.521334,0.678264
923,-0.067544,-0.772689,0.771143
924,-0.076213,-0.797213,0.839835
925,-0.027194,-0.545385,0.571096
926,0.046152,-0.051198,-0.749119
927,0.396328,2.351823,-3.637206
928,0.017728,1.466677,-0.631341
929,0.082431,0.670469,-0.830918
930,0.241305,-0.725444,-0.120485
931,-0.27638,-0.229458,0.220095
932,-0.921611,0.515192,1.039115
933,-0.951664,0.860452,0.096822
934,-0.522312,0.764591,0.596854
935,-0.086662,-0.402259,1.240392
936,0.03574,-0.361687,0.966296
937,-0.091548,-0.192725,0.923536
938,-0.135763,0.171305,1.184676
939,0.124106,0.505199,1.193272
940,0.27805,0.589501,1.017197
941,0.316625,0.429633,0.507498
942,0.530455,0.332096,-0.493364
943,0.307823,-0.122837,-0.080173
944,0.307907,-0.128669,-0.168114
945,0.219093,-0.033994,-0.413111
946,0.141684,-0.122559,-0.004296
947,0.183346,-0.259766,0.337856
948,0.31756,-0.328641,0.207033
949,0.252389,-0.189693,-0.01599
950,0.167153,-0.000363,-0.289808
951,0.163787,0.264446,-0.303468
952,0.243872,0.503473,-0.479304
953,0.43442,0.665864,-0.615196
954,0.851387,0.639472,-0.496087
955,0.824315,0.647782,-0.556242
956,0.770471,0.704403,-0.304992
957,0.664191,0.680667,-0.607804
958,0.213645,0.417608,-0.78022
959,-0.017207,0.339922,-0.850492
960,-0.202363,0.392364,-0.539959
961,0.104451,0.692167,0.791641
962,-0.202076,0.862737,0.682623
963,-0.512617,1.402412,0.472367
964,-0.704481,0.616708,0.156797
965,-0.78098,0.195528,0.106933
966,-0.308656,-0.208659,0.4326
967,0.047925,-0.221061,0.520859
968,0.147166,-0.209819,0.708541
969,0.345996,-0.40072,1.050758
970,0.653993,-0.598978,1.076294
971,0.669,-0.511429,0.92858
972,0.419589,-0.491347,0.774629
973,0.058111,-0.627036,0.852231
974,-0.092536,-0.674276,0.923653
975,-0.089405,-0.74551,0.904743
976,-0.025602,-0.552603,0.568983
977,0.03173,0.09345,-0.812256
978,-0.004486,2.070111,-2.607576
979,-0.117753,1.361641,-0.781887
980,0.009015,0.064099,-0.595518
981,0.048756,-0.536683,-0.438041
982,-0.363865,0.138179,0.081309
983,-0.568624,1.057567,0.096206
984,-0.330999,1.433307,0.603338
985,-0.259073,-0.143489,0.683267
986,-0.179719,-0.859391,1.469255
987,-0.099858,-0.614245,0.941617
988,-0.214146,-0.231175,0.911588
989,-0.264277,-0.112526,0.778991
990,-0.188445,0.606146,1.004417
991,0.238532,0.671085,1.080602
992,0.374093,0.608872,0.976315
993,0.703029,0.227871,-0.702914
994,0.749094,0.162917,0.103228
995,0.456674,-0.20983,-0.139693
996,0.371935,-0.160867,-0.373976
997,0.321854,0.048332,-0.200161
998,0.123091,-0.109581,0.269255
999,0.10549,-0.325348,0.482779
1000,0.098356,-0.252695,0.069664
1001,0.069169,-0.111748,-0.092828
1002,0.041772,0.022149,-0.213116
1003,0.191858,0.47153,-0.563852
1004,0.216601,0.561558,-0.711748
1005,0.312138,0.561944,-0.838482
1006,0.86054,0.647568,-0.354016
1007,0.801196,0.606212,-0.260597
1008,0.676663,0.605748,-0.456585
1009,0.502212,0.525177,-0.674952
1010,0.23222,0.59351,-0.812678
1011,-0.081821,0.783809,0.136891
1012,0.003322,0.603773,0.973053
1013,-0.106755,0.668334,0.686895
1014,-0.449341,1.0144,0.480098
1015,-0.710146,0.908277,0.159292
1016,-0.851041,0.212345,0.052513
1017,-0.616393,-0.232555,0.423227
1018,-0.06115,-0.182545,0.472167
1019,0.142603,-0.160018,0.717049
1020,0.386901,-0.26663,0.84743
1021,0.646139,-0.514124,1.083463
1022,0.847721,-0.472876,0.951108
1023,0.54084,-0.429892,0.78467
1024,0.186044,-0.609578,0.825332
1025,-0.053965,-0.702309,0.887979
1026,-0.078612,-0.793016,0.918101
1027,-0.12819,-0.752455,0.991474
1028,-0.198981,-0.355455,0.182659
1029,-0.109764,0.927977,-2.535629
1030,0.368604,2.643086,-1.289486
1031,0.176805,0.562787,-0.771599
1032,0.151327,-0.360216,-0.517315
1033,-0.319012,-0.105373,0.070966
1034,-0.689737,0.714457,0.304477
1035,-0.484922,1.197803,0.966806
1036,-0.116919,0.011111,0.346572
1037,-0.081576,-0.795037,1.514874
1038,-0.088309,-0.545772,1.084856
1039,-0.200826,-0.234149,0.859762
1040,-0.293841,0.115412,0.874322
1041,-0.099616,0.619144,1.108624
1042,0.184338,0.614647,1.027205
1043,0.287373,0.322278,0.623995
1044,0.617648,0.070342,-0.764985
1045,0.5431,0.062115,0.068692
1046,0.322478,-0.220107,-0.2618
1047,0.178385,-0.21705,0.020259
1048,0.313532,-0.036866,-0.049939
1049,0.307152,-0.039657,-0.068485
1050,0.16906,-0.326684,0.565142
1051,0.198618,-0.231498,0.178783
1052,0.101858,0.158456,-0.350146
1053,0.15494,0.379422,-0.48945
1054,0.309097,0.539399,-0.611294
1055,0.491852,0.586767,-0.642732
1056,0.643733,0.612682,-0.25013
1057,0.585483,0.435797,-0.085929
1058,0.695701,0.620482,-0.287999
1059,0.675231,0.642744,-0.608293
1060,0.60376,0.564817,-0.48755
1061,0.360468,0.500903,-0.667913
1062,-0.095177,0.561475,-0.049194
1063,0.012259,0.55105,0.976825
1064,-0.067938,0.594729,0.662112
1065,-0.436903,0.957042,0.315962
1066,-0.780343,1.096595,0.247912
1067,-0.838622,0.386159,0.198172
1068,-0.622212,-0.141935,0.439611
1069,-0.194288,-0.237411,0.483815
1070,-0.002207,-0.278128,0.649741
1071,0.246385,-0.29835,0.819194
1072,0.478278,-0.466434,1.096177
1073,0.676887,-0.676038,0.920189
1074,0.646538,-0.469578,0.930986
1075,0.443279,-0.410198,0.823814
1076,0.324305,-0.448794,0.844287
1077,0.022214,-0.648539,0.812624
1078,-0.075527,-0.595083,0.858057
1079,-0.291221,-0.234802,0.128032
1080,-0.264558,0.947514,-2.63047
1081,0.082596,1.898805,-1.232021
1082,0.23167,0.461572,-0.583579
1083,0.154381,-0.361151,-0.312761
1084,-0.068038,-0.147406,0.045438
1085,-0.628301,0.670013,0.558352
1086,-0.587502,1.278267,1.091294
1087,-0.062587,-0.428186,0.590235
1088,-0.145012,-0.741662,1.217869
1089,-0.147816,-0.736824,1.266625
1090,-0.337829,-0.006806,0.961497
1091,-0.36141,0.246281,0.976796
1092,-0.237121,0.468694,1.026688
1093,0.257411,0.47243,0.598453
1094,0.468975,0.419857,-0.142744
1095,0.906504,0.107697,0.193252
1096,0.435739,-0.238141,-0.11563
1097,0.105627,-0.231419,0.191114
1098,0.196886,0.069135,-0.264105
1099,0.00858,-0.112306,0.288438
1100,0.054599,-0.315942,0.559021
1101,0.122859,-0.426978,0.283224
1102,-0.049745,-0.177749,-0.439882
1103,-0.097596,0.162357,-0.254961
1104,0.068614,0.362173,-0.110223
1105,0.342979,0.50895,-0.739591
1106,0.653164,0.583447,-0.593042
1107,0.865772,0.550653,-0.3374
1108,0.827163,0.528537,-0.213186
1109,0.811826,0.559865,-0.056187
1110,0.603253,0.521921,-0.596766
1111,0.578853,0.339034,-0.655736
1112,0.358526,0.392311,-0.774799
1113,0.055541,0.739408,0.039447
1114,0.134493,0.709409,0.990743
1115,0.002184,0.673251,0.74611
1116,-0.416556,1.003947,0.678957
1117,-0.706123,1.124331,0.412765
1118,-0.799766,0.71332,0.145726
1119,-0.799876,-0.26475,0.310939
1120,-0.091745,-0.173096,0.453901
1121,0.142528,-0.233449,0.777138
1122,0.366343,-0.387809,0.846464
1123,0.853333,-0.373147,1.07293
1124,0.818934,-0.381566,0.962285
1125,0.641455,-0.374212,0.788836
1126,0.093187,-0.624719,0.848644
1127,0.030925,-0.630869,0.863374
1128,-0.008886,-0.674351,0.864335
1129,-0.011399,-0.514757,0.646683
1130,-0.015589,-0.300648,0.249796
1131,-0.026872,0.026271,-0.662866
1132,-0.094394,2.291881,-1.391424
1133,-0.078517,0.580816,-0.740862
1134,0.088084,-0.368348,-0.480849
1135,-0.099566,-0.27186,-0.070122
1136,-0.368233,0.431725,0.446523
1137,-0.41183,1.102622,1.334229
1138,-0.445929,0.679337,-0.303506
1139,-0.373177,-0.467598,1.253294
1140,-0.132416,-0.450401,1.044784
1141,-0.210061,-0.133296,0.865883
1142,-0.288012,0.014453,0.907857
1143,0.045159,0.561332,1.125949
1144,0.309624,0.516938,0.975825
1145,0.407257,0.466015,0.75578
1146,0.751438,0.14092,-0.577843
1147,0.737482,0.057918,0.151139
1148,0.312118,-0.289241,-0.066393
1149,0.359041,-0.011281,-0.452662
1150,0.087298,-0.066086,0.08782
1151,0.156849,-0.240119,0.225357
1152,0.1195,-0.212108,0.095127
1153,0.110018,-0.08366,-0.136488
1154,0.112472,0.031417,-0.192975
1155,0.175232,0.161909,-0.211403
1156,0.282878,0.216997,-0.496936
1157,0.394048,0.433822,-0.234646
1158,0.638186,0.622983,-0.208344
1159,0.861665,0.677906,-0.280363
1160,0.873358,0.581564,-0.298577
1161,0.754173,0.596159,-0.550691
1162,0.516405,0.509864,-0.755602
1163,0.345364,0.440512,-0.708149
1164,0.101424,0.499986,-0.227
1165,0.162193,0.720979,0.794445
1166,0.131064,0.646706,0.716362
1167,-0.261291,0.873947,0.778228
1168,-0.530057,1.291602,0.686744
1169,-0.638212,0.973576,0.563343
1170,-0.857349,-0.084622,0.090264
1171,-0.178364,-0.11667,0.443683
1172,0.13271,-0.207481,0.552516
1173,0.347397,-0.23375,0.793015
1174,0.644582,-0.472742,0.953784
1175,0.640242,-0.449523,0.849831
1176,0.573932,-0.394646,0.846256
1177,0.209133,-0.557794,0.849368
1178,0.102426,-0.630054,0.819396
1179,0.048131,-0.663074,0.806036
1180,-0.055684,-0.629816,0.684725
1181,-0.044281,-0.478032,0.457751
1182,0.017304,1.019245,-2.190427
1183,-0.082599,1.908738,-1.356249
1184,-0.049504,1.152649,-0.923223
1185,0.116076,-0.318504,-0.460471
1186,0.027121,-0.317381,-0.354182
1187,-0.68492,0.665169,0.444238
1188,-0.755405,1.444362,0.65468
1189,-0.35346,0.153418,0.429271
1190,-0.256555,-0.829436,1.420554
1191,-0.123207,-0.551743,1.113286
1192,-0.209901,-0.21881,1.003592
1193,-0.249013,0.026644,0.941533
1194,-0.060812,0.592268,1.212899
1195,0.297126,0.611041,1.094237
1196,0.462478,0.49052,0.763107
1197,0.706284,0.33521,-0.709295
1198,0.816625,0.271846,0.14055
1199,0.48733,-0.17409,-0.104659
1200,0.388056,-0.169933,-0.354996
1201,0.259897,0.09082,-0.154355
1202,0.080054,-0.21623,0.333621
1203,0.147006,-0.320016,0.345549
1204,0.078385,-0.310023,0.157953
1205,0.041207,-0.062236,-0.1238
1206,0.02449,0.069851,-0.235451
1207,0.289858,0.449664,-0.568304
1208,0.306631,0.460471,-0.62593
1209,0.632582,0.47516,-0.641357
1210,0.980387,0.599646,-0.393149
1211,0.922798,0.636775,-0.352839
1212,0.816446,0.462234,-0.241586
1213,0.343254,0.565058,-0.725949
1214,0.243649,0.369538,-1.085093
1215,-0.044406,0.484049,-0.42716
1216,0.148284,0.825113,1.00474
1217,0.103254,0.728903,0.754703
1218,-0.166689,0.917013,0.705917
1219,-0.460053,1.362782,0.580087
1220,-0.678508,0.658392,0.178398
1221,-0.754108,0.059554,0.141142
1222,-0.133809,0.015429,0.488888
1223,0.058354,0.006049,0.568567
1224,0.255443,-0.141979,0.83997
1225,0.517982,-0.338634,1.221477
1226,0.627284,-0.442081,1.0884
1227,0.520768,-0.462313,0.894175
1228,0.251478,-0.59771,0.915331
1229,0.082827,-0.740203,0.838048
1230,-0.026019,-0.775614,0.879862
1231,-0.038588,-0.68815,0.751423
1232,-0.058681,-0.203764,-0.013592
1233,-0.096879,1.064463,-2.082674
1234,-0.177056,1.790882,-1.370261
1235,0.227541,0.437061,-0.634965
1236,0.354886,-0.222948,-0.394182
1237,0.301287,-0.331034,-0.130752
1238,0.074419,0.109083,0.163377
1239,-0.480009,0.816506,0.73391
1240,-0.607253,0.963581,0.460879
1241,-0.71565,0.631614,-0.42105
1242,-0.230799,-0.592369,1.079646
1243,-0.089881,-0.460585,0.992624
1244,-0.177662,-0.28324,0.894963
1245,-0.156961,0.233892,1.09532
1246,0.125228,0.519032,1.223643
1247,0.277761,0.609357,1.005931
1248,0.528152,0.487334,-0.274941
1249,0.698235,0.245159,-0.145646
1250,0.651518,0.101734,0.042737
1251,0.254697,-0.261419,0.00166
1252,0.34432,-0.01324,-0.163899
1253,0.210483,0.125545,-0.061955
1254,0.077969,-0.219935,0.416365
1255,0.163713,-0.305589,0.225622
1256,0.142813,-0.247041,0.067939
1257,0.194321,-0.080176,-0.183484
1258,0.243419,0.118976,-0.208694
1259,0.308733,0.417299,-0.421673
1260,0.410945,0.590647,-0.555174
1261,0.535728,0.598088,-0.463119
1262,0.800822,0.630771,-0.481151
1263,0.819977,0.537963,-0.333797
1264,0.806376,0.533842,-0.31796
1265,0.551528,0.463685,-0.727681
1266,0.298716,0.388839,-0.925963
1267,0.173723,0.691856,0.399713
1268,0.190731,0.751989,0.884877
1269,0.122277,0.717073,0.910703
1270,-0.40152,1.41054,0.615709
1271,-0.511098,1.382785,0.555437
1272,-0.737576,0.322525,0.057665
1273,-0.783793,-0.039537,0.137911
1274,-0.198381,-0.088939,0.40312
1275,-0.016027,-0.136652,0.438745
1276,0.329896,-0.396303,0.955592
1277,0.507696,-0.485906,1.062006
1278,0.637889,-0.521833,0.994687
1279,0.454581,-0.502864,0.808203
1280,0.353855,-0.540134,0.829674
1281,0.203391,-0.629531,0.807592
1282,-0.083455,-0.657441,0.859363
1283,-0.10403,-0.68077,0.830429
1284,-0.098998,-0.648969,0.748147
1285,0.087615,0.696733,-1.551363
1286,0.157862,1.711443,-2.494075
1287,0.107934,1.517594,-0.913254
1288,0.09895,0.188121,-0.632433
1289,0.111,-0.409412,-0.520836
1290,-0.39794,0.199295,0.341514
1291,-0.475099,0.513952,0.405543
1292,-0.541493,1.126605,1.040876
1293,-0.49634,0.023307,0.266783
1294,-0.276321,-0.531661,1.572951
1295,-0.209408,-0.359718,1.220913
1296,-0.168639,-0.291008,0.823277
1297,-0.228377,0.180952,0.942931
1298,-0.156129,0.475835,1.101441
1299,0.277554,0.522958,1.075397
1300,0.422546,0.34103,0.175911
1301,0.785457,0.159334,-0.421014
1302,0.727295,-0.031665,0.051664
1303,0.295942,-0.260686,-0.150065
1304,0.361987,-0.067292,-0.192346
1305,0.074387,0.003943,0.181645
1306,0.105386,-0.202204,0.4084
1307,0.156061,-0.293332,0.148413
1308,0.146476,-0.191092,-0.061026
1309,0.129213,-0.002038,-0.182572
1310,0.159713,0.162776,-0.306039
1311,0.299989,0.327565,-0.46613
1312,0.419875,0.58845,-0.372815
1313,0.536502,0.591492,-0.392295
1314,0.905132,0.521588,-0.332024
1315,0.906801,0.58216,-0.195801
1316,0.834997,0.655707,-0.348186
1317,0.555334,0.433231,-0.599042
1318,0.064437,0.526578,-0.635969
1319,-0.10878,0.617491,-0.300944
1320,-0.132665,0.678541,0.355606
1321,-0.15855,0.839191,0.568906
1322,-0.358016,1.117546,0.562821
1323,-0.667561,1.3071,0.384622
1324,-0.8892,0.379874,0.020093
1325,-0.865157,-0.179666,0.231952
1326,-0.275852,-0.213038,0.47309
1327,0.098742,0.034678,0.69211
1328,0.23185,-0.090288,0.77392
1329,0.52122,-0.50981,1.025505
1330,0.55169,-0.432704,0.875297
1331,0.504376,-0.424319,0.854732
1332,0.1549,-0.611454,0.856884
1333,-0.046517,-0.668248,0.915447
1334,-0.06761,-0.686876,0.940487
1335,0.052151,-0.658004,0.753053
1336,0.205116,-0.148394,-0.065989
1337,0.195182,0.283626,-1.108278
1338,0.10443,2.204387,-0.977094
1339,-0.005372,0.538282,-0.462805
1340,-0.008379,-0.149221,-0.362868
1341,-0.477549,-0.289688,-0.243791
1342,-0.944057,0.92961,0.082692
1343,-0.657956,1.570246,0.051003
1344,0.135227,-0.262585,0.880451
1345,-0.130224,-0.889445,1.302144
1346,-0.226794,-0.429473,1.211185
1347,-0.398231,0.090405,1.142787
1348,-0.449181,0.254212,0.708393
1349,-0.399682,0.665647,0.838584
1350,0.072865,0.733536,0.973637
1351,0.346836,0.500227,0.775683
1352,0.768183,0.22364,-0.524696
1353,0.928974,0.189438,0.024302
1354,0.508723,-0.221934,0.467468
1355,0.435354,-0.324103,-0.491954
1356,0.24251,-0.003747,-0.112928
1357,0.052938,-0.102176,0.252124
1358,0.085629,-0.164458,0.355927
1359,0.099281,-0.217012,0.33067
1360,0.003681,-0.235274,-0.080382
1361,-0.052104,-0.00457,-0.38214
1362,0.049524,0.088158,-0.109512
1363,0.245851,0.517399,-0.408872
1364,0.382651,0.52369,-0.332967
1365,0.554469,0.556397,-0.277455
1366,0.831654,0.431549,-0.151919
1367,0.825967,0.463959,-0.071114
1368,0.763793,0.597892,-0.070229
1369,0.539442,0.292833,-0.780274
1370,0.453434,0.332653,-0.916772
1371,0.309375,0.346593,-0.903888
1372,0.222331,0.759044,0.949114
1373,0.192656,0.772999,0.952338
1374,0.00779,0.783421,0.621971
1375,-0.30716,1.103423,0.580958
1376,-0.5036,0.987228,0.441992
1377,-0.699331,0.209087,0.251924
1378,-0.29407,-0.089432,0.459118
1379,-0.106618,-0.134531,0.493722
1380,0.128739,-0.257767,0.825906
1381,0.337355,-0.46615,1.027606
1382,0.490199,-0.590081,0.96701
1383,0.447893,-0.511922,0.896205
1384,0.234287,-0.510098,0.872534
1385,0.16639,-0.55318,0.825579
1386,-0.120295,-0.639682,0.854179
1387,-0.235492,-0.650251,0.8945
1388,-0.252083,-0.552933,0.586117
1389,-0.083434,-0.076518,-0.341781
1390,0.226249,1.297641,-2.268543
1391,0.284525,1.889938,-0.903281
1392,0.211515,0.394309,-0.633988
1393,0.208253,-0.416804,-0.443007
1394,-0.042379,-0.029221,-0.087474
1395,-0.303689,0.531024,0.317499
1396,-0.055816,1.172646,0.455107
1397,-0.165879,0.613894,0.027974
1398,-0.518019,-0.555989,1.060282
1399,-0.280907,-0.612325,1.32847
1400,-0.30874,-0.414057,1.158251
1401,-0.335527,0.05846,0.88161
1402,-0.269547,0.533091,1.023268
1403,0.100571,0.609962,1.114713
1404,0.322805,0.500574,0.861387
1405,0.622528,0.272952,-0.384606
1406,0.777783,0.180003,-0.418737
1407,0.37558,-0.146342,-0.081778
1408,0.16526,-0.181827,0.035508
1409,0.284073,-0.103591,-0.087463
1410,0.193917,0.084385,-0.079856
1411,0.168133,-0.283196,0.307809
1412,0.19829,-0.321965,0.166739
1413,0.180436,-0.214684,0.009128
1414,0.16396,-0.019146,-0.075651
1415,0.181182,0.068362,-0.09029
1416,0.236407,0.251165,-0.271749
1417,0.361897,0.46235,-0.448963
1418,0.454606,0.540009,-0.441919
1419,0.812802,0.598732,-0.551304
1420,0.846756,0.593524,-0.585861
1421,0.805795,0.421059,-0.605939
1422,0.384774,0.550468,-0.81687
1423,0.362702,0.457991,-0.473316
1424,0.424739,0.880929,0.531462
1425,0.112754,0.8762,0.803826
1426,-0.038701,0.866713,0.819764
1427,-0.387483,1.285007,0.693123
1428,-0.686473,1.038206,0.334617
1429,-0.98176,0.168341,-0.357464
1430,-0.969996,-0.041922,0.010934
1431,0.033366,-0.159422,0.51119
1432,0.097658,-0.214962,0.751048
1433,0.194826,-0.220556,1.080142
1434,0.678622,-0.418461,1.059822
1435,0.647491,-0.443748,1.010583
1436,0.5267,-0.418467,0.893675
1437,0.090748,-0.716494,0.908891
1438,0.014024,-0.732662,0.927904
1439,-0.003359,-0.809352,0.98251
1440,-0.008531,-0.493393,0.604759
1441,-0.129186,0.105131,-0.675059
1442,-0.308948,0.866689,-2.035843
1443,-0.041671,1.373979,-0.932817
1444,0.310306,-0.252403,-0.534181
1445,0.24492,-0.352628,-0.419254
1446,0.136211,-0.183404,0.044009
1447,-0.103818,0.659301,0.318301
1448,-0.558154,1.259347,1.125788
1449,-0.491159,0.991138,-0.478632
1450,-0.282164,-0.576965,1.794455
1451,-0.164288,-0.573119,1.027026
1452,-0.197164,-0.442255,0.89514
1453,-0.34159,-0.099159,1.001063
1454,-0.352933,0.261057,1.173687
1455,-0.152697,0.500437,1.247073
1456,0.284821,0.435701,0.697384
1457,0.406362,0.320178,0.042377
1458,0.685878,0.188434,-0.923833
1459,0.366825,-0.17364,0.01774
1460,0.413972,-0.137756,-0.520012
1461,0.351375,0.034087,-0.194879
1462,0.16604,-0.179816,0.338955
1463,0.209044,-0.303266,0.256767
1464,0.185166,-0.126346,-0.084834
1465,0.153641,-0.02887,-0.038094
1466,0.144073,0.058813,-0.018997
1467,0.123793,0.25122,-0.327264
1468,0.288477,0.508214,-0.22382
1469,0.676496,0.676501,-0.099822
1470,0.894623,0.622571,-0.32762
1471,0.917428,0.459738,-0.273013
1472,0.878847,0.436177,-0.252478
1473,0.361589,0.433815,-0.728523
1474,0.278876,0.416098,-0.808357
1475,0.093015,0.449203,-0.586528
1476,0.260108,0.791935,0.726102
1477,0.166961,0.679631,0.795128
1478,0.018236,0.733435,0.548432
1479,-0.456222,1.283608,0.703538
1480,-0.764631,1.194465,0.676102
1481,-0.991102,0.03975,-0.174934
1482,-0.507046,-0.412758,0.443379
1483,0.020628,-0.201251,0.684309
1484,0.251124,-0.43389,0.798286
1485,0.543636,-0.48939,0.918621
1486,0.814412,-0.365133,1.075719
1487,0.757322,-0.391312,1.02715
1488,0.309152,-0.433697,0.780296
1489,0.000581,-0.610667,0.841604
1490,-0.160413,-0.671089,0.867866
1491,-0.219116,-0.661632,0.910043
1492,-0.107589,-0.168994,0.01541
1493,-0.043381,0.278764,-1.233221
1494,0.506955,2.475057,-2.361109
1495,0.050741,0.99292,-0.783758
1496,0.037746,-0.241467,-0.490079
1497,-0.311056,-0.07856,-0.325522
1498,-0.851692,0.654534,0.206915
1499,-0.342508,1.5358,-0.423823
1500,-0.213133,0.995199,0.867135
1501,-0.19513,-0.912124,1.149455
1502,-0.263752,-0.62478,0.717413
1503,-0.261058,-0.305839,0.964424
1504,-0.398431,0.609376,1.218943
1505,-0.226985,0.799259,1.229706
1506,0.06333,0.784137,1.137822
1507,0.800332,0.552771,-0.195544
1508,1.103075,0.029151,0.151361
1509,0.643971,-0.193449,-0.092507
1510,0.39163,-0.068883,-0.071733
1511,0.306197,-0.009143,0.021503
1512,0.011216,-0.013888,0.258166
1513,0.037228,-0.116564,0.082837
1514,-0.023015,-0.168832,0.265916
1515,0.159191,-0.336329,0.273759
1516,0.256914,-0.199591,0.020935
1517,0.293893,-0.129956,-0.065439
1518,0.278928,0.100624,-0.160805
1519,0.242512,0.228671,-0.341574
1520,0.19403,0.502344,-0.365549
1521,0.422839,0.56014,-0.410749
1522,0.664102,0.548569,-0.325635
1523,0.681491,0.540565,-0.270982
1524,0.756563,0.629072,-0.309695
1525,0.450264,0.403269,-0.725674
1526,0.452205,0.393228,-0.773271
1527,0.233054,0.518615,-0.362087
1528,0.252321,0.762593,0.481681
1529,0.140821,0.660165,0.804982
1530,-0.190246,0.717279,0.861549
1531,-0.540937,1.327234,0.696706
1532,-0.753042,0.74678,0.247664
1533,-0.989231,0.020751,-0.198772
1534,-0.381861,-0.039319,0.447872
1535,-0.128257,-0.096556,0.492681
1536,0.196706,-0.175906,0.842101
1537,0.406381,-0.187252,0.921067
1538,0.51359,-0.28675,1.13211
1539,0.6705,-0.427665,1.01518
1540,0.435174,-0.39808,0.908556
1541,0.10484,-0.577864,0.907224
1542,-0.10394,-0.569233,0.924155
1543,-0.144675,-0.603916,0.927615
1544,-0.098774,-0.544056,0.772449
1545,-0.015074,-0.210056,-0.003569
1546,0.170159,2.193772,-2.539495
1547,0.10439,2.303347,-1.199382
1548,-0.184578,0.738837,-0.689273
1549,0.005305,-0.453066,-0.534106
1550,0.045584,-0.840789,-0.192388
1551,-0.355671,0.597508,0.74298
1552,-0.5392,0.881499,1.235708
1553,-0.347863,1.052641,-0.439007
1554,-0.158294,-0.224073,1.326728
1555,0.073986,-0.422202,1.041348
1556,0.030939,-0.333531,0.956707
1557,-0.089463,-0.017655,0.873573
1558,-0.052973,0.423396,1.135576
1559,0.084544,0.543894,1.128335
1560,0.303818,0.428227,0.798167
1561,0.510929,0.255899,-0.165475
1562,0.694743,0.092864,-0.013286
1563,0.35314,-0.150383,-0.024065
1564,0.04991,-0.198197,0.020623
1565,0.081837,-0.084429,0.004844
1566,0.190515,-0.085074,0.211282
1567,0.143764,-0.235183,0.442836
1568,0.186835,-0.251224,0.25961
1569,0.251213,-0.145022,-0.03083
1570,0.25986,0.061901,-0.172974
1571,0.251603,0.2835,-0.258142
1572,0.212326,0.523467,-0.630209
1573,0.462647,0.576309,-0.454552
1574,0.770593,0.608902,-0.303264
1575,0.856966,0.668663,-0.22982
1576,0.917401,0.569302,-0.158313
1577,0.870901,0.486284,-0.366835
1578,0.518366,0.342169,-0.618449
1579,0.220522,0.532461,-0.484936
1580,0.043341,0.787677,0.323815
1581,-0.026002,0.648453,0.941513
1582,-0.15444,0.668609,0.935754
1583,-0.469027,1.279393,0.641262
1584,-0.796428,1.012012,0.332064
1585,-0.948638,0.13944,0.067283
1586,-0.357266,0.054146,0.390266
1587,0.065619,0.025832,0.781406
1588,0.3199,-0.143047,0.891996
1589,0.587648,-0.310324,0.94329
1590,0.573561,-0.33965,0.896667
1591,0.503192,-0.364154,0.950479
1592,0.281058,-0.569324,0.978207
1593,0.029182,-0.69905,0.94439
1594,-0.114279,-0.742083,0.97443
1595,-0.114581,-0.735191,0.915573
1596,0.033972,-0.499154,0.70855
1597,0.223358,0.075007,-0.556817
1598,0.279644,2.084332,-2.68419
1599,-0.084125,1.622794,-0.876236
1600,-0.104571,0.202045,-0.415597
1601,-0.150374,-0.502169,-0.433803
1602,-0.353672,-0.075407,-0.085041
1603,-0.603702,1.037814,0.160794
1604,-0.239228,1.345149,0.80493
1605,-0.078884,-0.264634,0.919883
1606,-0.418354,-0.819327,1.168106
1607,-0.297452,-0.655766,0.992123
1608,-0.254122,-0.029241,1.35542
1609,-0.232692,0.20656,0.79767
1610,-0.069374,0.743268,1.107996
1611,0.356704,0.825151,1.16853
1612,0.722656,0.620464,-0.025961
1613,1.047865,0.273253,-0.017543
1614,0.685306,-0.125362,-0.21097
1615,0.409915,-0.188209,-0.282806
1616,0.300408,-0.052923,0.061335
1617,0.064525,-0.070728,0.39816
1618,-0.022657,-0.156477,0.387226
1619,-0.029523,-0.16229,0.357046
1620,0.07849,-0.319267,0.601236
1621,0.215709,-0.08035,-0.148741
1622,0.21281,0.05872,-0.234429
1623,0.222427,0.18407,-0.262278
1624,0.197213,0.452381,-0.581809
1625,0.178554,0.446938,-0.585353
1626,0.537799,0.554956,-0.374948
1627,0.815082,0.665543,-0.019302
1628,0.936354,0.780401,0.075518
1629,0.99037,0.562795,-0.191795
1630,0.84573,0.438168,-0.485421
1631,0.37293,0.403698,-0.78165
1632,-0.193712,0.560185,-0.760514
1633,-0.185067,0.674767,0.767754
1634,0.067896,0.607711,0.96326
1635,-0.226826,0.855653,0.740555
1636,-0.472351,1.179577,0.552639
1637,-0.704631,0.451772,0.23865
1638,-0.32932,0.068131,0.377931
1639,0.055804,-0.031342,0.808378
1640,0.415503,-0.310284,0.824619
1641,0.596509,-0.344941,0.824267
1642,0.631895,-0.252704,0.843145
1643,0.421477,-0.358894,0.870879
1644,0.236169,-0.473718,0.913332
1645,-0.055284,-0.623775,0.851231
1646,-0.142798,-0.650461,0.879195
1647,-0.176493,-0.749641,0.879766
1648,-0.051523,-0.714524,0.866618
1649,0.045243,-0.563558,0.709669
1650,0.333937,0.742021,-1.624935
1651,0.25301,2.391642,-1.774231
1652,0.136291,1.517688,-1.081421
1653,0.164352,-0.252054,-0.476547
1654,-0.038273,0.103581,-0.071061
1655,-0.345042,0.871152,0.273259
1656,-0.337197,1.149863,0.949041
1657,-0.322855,0.193543,0.252923
1658,-0.512474,-0.595726,1.387193
1659,-0.322201,-0.527208,1.134935
1660,-0.397536,-0.052731,0.9742
1661,-0.443974,0.0239,0.844089
1662,-0.459951,0.023372,0.874175
1663,0.075399,0.562199,1.06629
1664,0.220803,0.597938,0.942645
1665,0.347417,0.541003,0.678869
1666,0.820663,0.093674,0.106239
1667,0.6475,-0.04929,-0.063967
1668,0.524996,-0.192773,-0.149721
1669,0.355712,-0.008081,-0.091174
1670,0.148676,0.056766,0.004
1671,0.122919,-0.070456,0.233889
1672,0.182208,-0.231069,0.332208
1673,0.221441,-0.147611,0.096079
1674,0.271593,-0.045638,-0.109271
1675,0.256865,0.256525,-0.233303
1676,0.19684,0.342717,-0.491288
1677,0.131062,0.596302,-0.693419
1678,0.47029,0.583691,-0.289782
1679,0.732206,0.641463,-0.100228
1680,0.848482,0.524465,-0.025087
1681,0.733019,0.45092,-0.417216
1682,0.38526,0.263313,-0.768027
1683,0.206828,0.461538,-0.672517
1684,0.234844,0.69973,0.237584
1685,0.221499,0.745111,0.618988
1686,0.090086,0.648712,0.877547
1687,-0.358393,1.122217,0.790321
1688,-0.49883,1.380128,0.65289
1689,-0.985744,0.186369,-0.121917
1690,-0.797491,-0.091307,0.225562
1691,-0.355171,-0.012116,0.409155
1692,0.134245,-0.267317,0.869876
1693,0.386575,-0.391202,0.99551
1694,0.622357,-0.299219,0.983763
1695,0.682422,-0.341602,0.919154
1696,0.386626,-0.436451,0.832851
1697,0.179138,-0.569211,0.880945
1698,-0.086922,-0.692001,0.923083
1699,-0.088438,-0.712259,0.890827
1700,-0.00779,-0.612241,0.828353
1701,0.149938,-0.273238,0.184126
1702,0.255443,1.079732,-2.359037
1703,0.225172,2.280781,-1.200743
1704,-0.003215,0.612061,-0.583191
1705,-0.035969,-0.327802,-0.491618
1706,-0.066547,-0.614166,-0.048696
1707,-0.532725,0.423345,0.792306
1708,-0.664923,0.689169,1.167315
1709,-0.544035,0.38339,1.0525
1710,-0.562544,0.168043,0.388641
1711,-0.108792,-0.15867,1.137024
1712,-0.075704,-0.163127,1.097396
1713,-0.037451,-0.2061,1.035245
1714,0.160557,0.588347,1.375705
1715,0.298996,0.597709,1.267404
1716,0.361617,0.651379,1.08261
1717,0.801245,0.32167,0.030982
1718,0.844255,0.138969,0.122353
1719,0.64478,-0.063931,-0.039148
1720,0.231304,-0.064704,-0.036072
1721,0.127686,-0.038196,0.204041
1722,0.018552,-0.030503,0.393488
1723,0.074763,-0.340242,0.544587
1724,0.112858,-0.363249,0.440046
1725,0.075964,-0.111971,-0.136226
1726,0.041733,0.016879,-0.29226
1727,0.086581,0.21348,-0.082453
1728,0.218299,0.481224,-0.49956
1729,0.353374,0.509231,-0.390589
1730,0.571437,0.496713,-0.368227
1731,0.913857,0.54046,-0.215265
1732,0.794838,0.459284,-0.183502
1733,0.779593,0.477087,-0.145757
1734,0.519537,0.353253,-0.657864
1735,0.424714,0.495416,-0.622138
1736,0.279103,0.55024,-0.485272
1737,0.103263,0.613928,0.741452
1738,0.036283,0.650513,0.828548
1739,-0.096115,0.766931,0.868694
1740,-0.544502,1.271899,0.598509
1741,-0.817469,0.58163,-0.002742
1742,-0.870102,-0.009688,0.267662
1743,-0.212104,-0.057152,0.537962
1744,0.054165,-0.065057,0.615866
1745,0.137997,-0.124006,0.786008
1746,0.359463,-0.318147,1.040147
1747,0.616845,-0.390046,1.137769
1748,0.727877,-0.412879,1.049272
1749,0.46183,-0.458035,0.863131
1750,0.202126,-0.525663,0.914994
1751,0.092124,-0.565831,0.922897
1752,0.008567,-0.660353,0.881354
1753,0.045577,-0.5336,0.715844
1754,0.049066,-0.07414,-0.385624
1755,-0.106512,2.002419,-3.056522
1756,-0.144651,1.733023,-0.667857
1757,0.052,0.858348,-0.72053
1758,0.105643,-0.353326,-0.41923
1759,-0.384074,0.179143,0.160458
1760,-0.48362,0.942162,-0.284339
1761,-0.267001,1.051607,0.820685
1762,-0.200798,-0.490591,1.171576
1763,-0.391347,-0.765558,1.270216
1764,-0.333078,-0.544592,1.050694
1765,-0.340246,0.254398,1.13689
1766,-0.337191,0.301645,1.014573
1767,-0.278446,0.480634,1.063748
1768,0.356261,0.629987,0.951059
1769,0.683633,0.492876,-0.311128
1770,0.947294,0.105007,0.163284
1771,0.615554,-0.167349,-0.137465
1772,0.524541,-0.191344,-0.298362
1773,0.113085,-0.080738,0.441237
1774,0.08035,0.163026,0.043922
1775,0.085144,0.079027,0.126358
1776,0.003673,-0.276701,0.541246
1777,0.155309,-0.265665,0.413545
1778,0.239431,-0.136421,-0.059569
1779,0.265259,0.05726,-0.182384
1780,0.253149,0.136349,-0.195547
1781,0.222484,0.250261,-0.343705
1782,0.215361,0.518239,-0.395256
1783,0.497052,0.586018,-0.299234
1784,0.659329,0.599339,-0.168217
1785,0.801745,0.426053,-0.075679
1786,0.609863,0.431524,-0.329789
1787,0.412739,0.404153,-0.402463
1788,0.303009,0.434031,-0.962246
1789,0.045154,0.493374,-0.651291
1790,0.043016,0.58364,0.146831
1791,0.142313,0.62251,0.91174
1792,-0.361685,1.043115,0.826221
1793,-0.499048,1.233192,0.712201
1794,-0.724882,0.621818,0.306532
1795,-0.970566,-0.017777,-0.114364
1796,-0.658928,0.041771,0.189054
1797,0.067082,-0.067718,0.702731
1798,0.28552,-0.243519,0.8902
1799,0.487791,-0.36428,0.948258
1800,0.734625,-0.19789,0.976136
1801,0.50378,-0.321313,0.840301
1802,0.40743,-0.360721,0.840083
1803,-0.005425,-0.562863,0.869074
1804,-0.112995,-0.622363,0.887864
1805,-0.102972,-0.651107,0.867329
1806,-0.051942,-0.54907,0.764957
1807,0.08824,-0.07995,-0.111126
1808,0.087805,-0.099747,-0.138896
1809,0.173326,1.743162,-0.871591
1810,-0.015867,-0.185344,-0.301302
1811,-0.018768,-0.177914,-0.289359
1812,-0.903817,0.669001,0.174176
1813,-0.300708,1.469838,0.013064
1814,-0.126859,-0.192068,1.128689
1815,-0.374793,-0.866281,1.401701
1816,-0.434446,-0.405473,1.134875
1817,-0.380462,-0.01792,1.376853
1818,-0.389819,0.160861,1.035096
1819,-0.301162,0.601102,1.128035
1820,0.169075,0.754481,1.179026
1821,0.492112,0.739506,0.541471
1822,1.016343,0.493539,-0.037055
1823,1.085246,0.227112,0.073314
1824,0.678076,-0.222345,-0.29653
1825,0.395192,-0.111328,-0.055184
1826,0.149904,-0.135005,0.307034
1827,0.083728,0.060634,0.007945
1828,-0.041068,-0.153319,0.414308
1829,-0.055647,-0.305225,0.556058
1830,0.12521,-0.265205,0.595314
1831,0.241871,-0.139054,0.069034
1832,0.228627,-0.006775,-0.102913
1833,0.13438,0.192401,-0.392741
1834,0.091735,0.505498,-0.474614
1835,0.094864,0.508559,-0.534644
1836,0.480277,0.542664,-0.15704
1837,0.709599,0.573214,0.035349
1838,0.719207,0.574251,0.071371
1839,0.606639,0.375946,-0.478305
1840,0.452121,0.411676,-0.65142
1841,0.442381,0.408295,-0.649496
1842,0.139715,0.479467,-0.347752
1843,0.123424,0.588889,0.953593
1844,0.024294,0.607602,0.955392
1845,-0.276573,0.834426,0.842985
1846,-0.522666,0.777046,0.419116
1847,-0.534498,0.793324,0.466164
1848,-0.713781,0.030232,0.20806
1849,-0.241382,0.026177,0.602123
1850,0.015726,-0.142535,0.702896
1851,0.175686,-0.345876,0.813569
1852,0.43708,-0.303926,0.950875
1853,0.547402,-0.333979,0.927543
1854,0.355768,-0.418996,0.823295
1855,0.079334,-0.553671,0.80138
1856,-0.133135,-0.633063,0.796416
1857,-0.192219,-0.722356,0.836866
1858,-0.108755,-0.641644,0.831743
1859,-0.01925,-0.543257,0.664786
1860,0.31002,1.010532,-2.188482
1861,0.548907,2.088705,-1.171485
1862,0.512192,1.261887,-0.770287
1863,0.141189,-0.038904,-0.451629
1864,-0.186488,0.210959,0.097498
1865,-0.475101,0.511098,0.531979
1866,-0.451091,1.37039,-0.230152
1867,-0.584183,-0.588476,1.255289
1868,-0.723782,-1.116347,1.588533
1869,-0.527341,-0.191009,1.877801
1870,-0.576966,0.005346,1.886953
1871,-0.6545,0.317783,1.349137
1872,-0.484458,0.883871,1.106847
1873,0.083919,1.081301,1.183007
1874,0.347361,1.059294,1.130547
1875,0.841551,0.652707,-0.012934
1876,0.964484,-0.096015,0.306229
1877,0.756123,-0.347513,0.097525
1878,0.463805,-0.184589,-0.294284
1879,-0.028551,-0.040216,0.398412
1880,-0.032332,-0.046504,0.370311
1881,0.029916,-0.318622,0.457978
1882,0.028611,-0.414343,0.449551
1883,0.013753,-0.461106,0.377356
1884,-0.033393,-0.088984,-0.051118
1885,0.019065,0.150961,-0.172289
1886,0.052321,0.175746,-0.218619
1887,0.298771,0.473494,-0.541486
1888,0.460728,0.485117,-0.27207
1889,0.667394,0.505567,-0.251382
1890,0.632184,0.460352,-0.188705
1891,0.605988,0.532509,-0.320057
1892,0.514993,0.562515,-0.459003
1893,0.457705,0.417646,-0.579459
1894,0.286282,0.393531,-0.360086
1895,0.215457,0.452016,-0.05829
1896,0.064697,0.673199,0.929173
1897,-0.262869,0.899333,0.816622
1898,-0.410764,1.14473,0.74522
1899,-0.667845,0.606936,0.313188
1900,-0.804793,0.004768,0.224455
1901,-0.406454,-0.021296,0.575613
1902,-0.011969,-0.085265,0.826428
1903,0.240551,-0.333223,0.916395
1904,0.40306,-0.398837,0.958
1905,0.504361,-0.408031,0.925132
1906,0.369808,-0.381588,0.925488
1907,0.117696,-0.572622,0.891809
1908,-0.103825,-0.62417,0.910838
1909,-0.20929,-0.669119,0.956146
1910,-0.213174,-0.688331,0.947152
1911,-0.1679,-0.422763,0.638761
1912,0.131568,0.268092,-0.900394
1913,0.305695,1.144097,-2.225268
1914,0.191906,1.442029,-0.717983
1915,-0.010184,0.190283,-0.273933
1916,-0.07373,-0.322027,-0.282917
1917,-0.212852,-0.513983,0.138253
1918,-0.589143,0.536109,0.637941
1919,-0.712982,0.774043,0.77379
1920,-0.296684,0.831904,-0.088598
1921,-0.193114,-0.320182,1.431589
1922,-0.216441,-0.325096,1.435831
1923,-0.165936,0.018887,1.104793
1924,-0.058299,0.30269,1.215291
1925,-0.053558,0.274166,1.168443
1926,0.360673,0.617109,1.03803
1927,0.587169,0.537325,-0.077878
1928,0.617208,0.524352,-0.125006
1929,0.540509,0.097751,-0.05899
1930,0.265244,-0.189151,-0.117489
1931,0.256405,-0.199304,-0.148023
1932,0.187297,0.024857,0.075618
1933,0.140951,-0.03325,0.069712
1934,0.069622,-0.1383,0.166028
1935,0.091518,-0.35028,0.582631
1936,0.130556,-0.058999,0.120054
1937,0.120051,0.06017,-0.081859
1938,0.164725,0.156795,-0.303137
1939,0.116353,0.350139,-0.369582
1940,0.10412,0.377652,-0.415705
1941,0.382757,0.467193,-0.413666
1942,0.639553,0.517927,-0.066248
1943,0.616223,0.44426,-0.002009
1944,0.397811,0.564466,-0.443035
1945,0.397185,0.343833,-0.74837
1946,0.449284,0.350254,-0.770519
1947,0.203999,0.537718,0.071817
1948,0.221424,0.611018,0.85276
1949,0.11133,0.588158,0.82148
1950,-0.262271,0.882448,0.920115
1951,-0.452536,1.189672,0.595334
1952,-0.695574,0.368164,0.148624
1953,-0.905611,-0.031378,0.222761
1954,-0.307994,-0.030504,0.601083
1955,0.019507,-0.098222,0.698059
1956,0.169823,-0.213231,0.877547
1957,0.421422,-0.252751,1.007941
1958,0.4983,-0.256224,1.085703
1959,0.444993,-0.278174,0.929206
1960,0.21026,-0.398116,0.901732
1961,0.080857,-0.463416,0.923788
1962,-0.141358,-0.63552,0.960654
1963,-0.107423,-0.669067,0.895536
1964,-0.064379,-0.613437,0.786315
1965,0.157327,0.100273,-0.770686
1966,0.209201,2.074608,-2.286431
1967,0.087395,2.268438,-1.341341
1968,0.023747,0.143059,-0.356843
1969,-0.042839,-0.611731,-0.019674
1970,-0.048613,-0.613876,-0.018986
1971,-0.74358,0.602152,0.789023
1972,-0.582221,0.691769,0.098366
1973,-0.591623,0.684151,0.093939
1974,-0.188369,-0.257764,1.619565
1975,-0.179622,-0.119126,1.223729
1976,-0.110794,-0.117592,1.235191
1977,-0.152812,0.217787,1.193408
1978,0.061927,0.690487,1.317745
1979,0.202095,0.734875,1.19299
1980,0.600479,0.535558,-0.179763
1981,0.842851,0.175032,0.021417
1982,0.667311,-0.039149,-0.068244
1983,0.326915,-0.213859,-0.024718
1984,0.254879,-0.16442,0.075156
1985,0.073579,0.014749,0.320421
1986,-0.010919,0.125529,0.181121
1987,-0.003126,-0.233202,0.50096
1988,0.057886,-0.339056,0.371827
1989,0.215637,-0.160201,-0.176538
1990,0.228683,0.07669,-0.087164
1991,0.218944,0.142173,-0.086546
1992,0.155333,0.465245,-0.357806
1993,0.171274,0.537523,-0.303741
1994,0.346041,0.521754,-0.323522
1995,0.606696,0.45505,-0.191845
1996,0.622103,0.397663,-0.165681
1997,0.606822,0.474342,-0.224235
1998,0.278742,0.405727,-0.695538
1999,0.188781,0.42405,-0.76045
2000,0.140207,0.502344,-0.401796
2001,0.240525,0.61791,0.966137
2002,0.191615,0.599055,0.961211
2003,-0.223349,1.075559,0.981518
2004,-0.541259,1.175743,0.582169
2005,-0.728709,0.261401,0.261507
2006,-0.590376,-0.027963,0.260039
2007,-0.106108,-0.032125,0.628765
2008,0.068049,-0.231075,0.799991
2009,0.142521,-0.301416,0.853406
2010,0.443237,-0.323003,0.993855
2011,0.410871,-0.414862,0.973791
2012,0.37862,-0.400393,0.918166
2013,0.004637,-0.578376,0.900832
2014,-0.150908,-0.577174,0.981714
2015,-0.187081,-0.597154,0.976286
2016,-0.190433,-0.617613,0.945074
2017,0.016302,0.002601,-0.165028
2018,0.031274,-0.021344,-0.202233
2019,0.279292,2.32783,-1.79421
2020,0.195226,1.936281,-1.0243
2021,0.014232,0.527274,-0.517075
2022,-0.144584,-0.097924,0.088581
2023,-0.451171,0.141695,0.491148
2024,-0.57364,0.415535,0.58393
2025,-0.242701,0.662756,0.290094
2026,-0.461379,0.054458,0.572408
2027,-0.416028,-0.39454,1.247082
2028,-0.237028,-0.33367,1.175327
2029,-0.312162,-0.053746,1.070633
2030,-0.393249,0.335191,1.092176
2031,-0.091816,0.650807,1.258123
2032,0.166929,0.653665,1.015008
2033,0.436735,0.413317,0.060869
2034,0.818719,0.13695,-0.148922
2035,0.355985,-0.167059,0.016757
2036,0.242598,-0.251972,-0.033794
2037,0.074762,-0.058736,0.403899
2038,-0.007943,0.051399,0.34139
2039,0.032152,-0.160293,0.46352
2040,0.133048,-0.334147,0.257082
2041,0.154773,-0.250554,-0.013552
2042,0.120348,-0.02408,-0.056421
2043,0.086465,0.190123,-0.005107
2044,0.125925,0.177194,-0.215567
2045,0.157568,0.255848,-0.428805
2046,0.457051,0.51526,-0.201107
2047,0.72521,0.645137,-0.137742
2048,0.725022,0.536065,-0.075117
2049,0.662629,0.629204,-0.265182
2050,0.432728,0.4347,-0.774089
2051,0.430244,0.33493,-0.776397
2052,0.350708,0.381918,-0.45226
2053,0.233,0.60059,0.530523
2054,0.265921,0.645842,1.060932
2055,-0.279347,0.991091,0.886903
2056,-0.423915,1.247002,0.70106
2057,-0.634069,1.295819,0.582686
2058,-1.035534,-0.139065,0.310864
2059,-0.615122,-0.176897,0.529187
2060,-0.26581,-0.096846,0.567595
2061,0.19769,-0.095875,0.896183
2062,0.576037,-0.390055,1.128273
2063,0.607682,-0.357663,1.158315
2064,0.364228,-0.298467,0.889746
2065,0.100665,-0.526465,0.952603
2066,0.108518,-0.516122,0.960727
2067,-0.125942,-0.635717,0.992368
2068,-0.091425,-0.616466,0.979396
2069,-0.081078,-0.63549,0.953892
2070,-0.02781,0.302162,-0.728103
2071,0.050917,2.646173,-3.080844
2072,0.058561,2.648303,-3.082144
2073,0.132411,-0.104145,-0.488519
2074,0.20023,-0.474048,-0.101786
2075,0.211843,-0.424841,0.198859
2076,-0.519444,0.577052,1.275596
2077,-0.761622,1.129362,0.712901
2078,-0.720017,1.544382,-0.972314
2079,-0.339856,0.126714,1.32314
2080,-0.070815,-0.441739,1.101147
2081,-0.167405,-0.33668,1.028115
2082,-0.298348,0.037854,1.159931
2083,-0.151583,0.478463,1.437793
2084,-0.009051,0.511845,1.346389
2085,0.335439,0.442576,-0.414612
2086,0.540986,0.257397,-0.583656
2087,0.616114,0.155487,-0.204977
2088,0.29843,-0.254601,0.131151
2089,0.101797,-0.127938,0.275915
2090,0.116231,0.119628,-0.047859
2091,0.010392,-0.080334,0.318785
2092,0.132057,-0.345484,0.393055
2093,0.203843,-0.464789,0.277801
2094,0.122721,-0.291668,0.165223
2095,0.034352,-0.031215,0.039586
2096,0.048618,0.057075,-0.001587
2097,0.20896,0.378544,-0.376706
2098,0.331109,0.402086,-0.277759
2099,0.525359,0.490136,-0.254449
2100,0.724034,0.529822,-0.425416
2101,0.534661,0.525431,-0.152231
2102,0.350523,0.748743,-0.368623
2103,0.243664,0.426201,-0.656876
2104,0.244364,0.396559,-0.506154
2105,0.066798,0.459307,0.073792
2106,0.037396,0.584826,0.835263
2107,-0.273499,0.747595,0.884922
2108,-0.295758,0.76492,0.968138
2109,-0.770132,1.064335,0.392393
2110,-0.824558,0.077947,0.280737
2111,-0.845778,0.085046,0.305106
2112,-0.018346,0.035713,0.500051
2113,0.134824,-0.032059,1.018549
2114,0.305896,-0.135021,1.11961
2115,0.501799,-0.362378,1.029609
2116,0.393345,-0.307762,0.982135
2117,0.353547,-0.303358,0.987832
2118,0.1357,-0.42799,0.992901
2119,-0.068399,-0.547873,0.946413
2120,-0.187078,-0.553629,0.993772
2121,-0.20455,-0.583402,0.998213
2122,-0.076354,-0.382434,0.635632
2123,-0.028159,-0.148872,0.231106
2124,0.16823,2.567694,-3.361085
2125,0.007945,2.529288,-0.849097
2126,-0.013232,-0.015834,-0.48757
2127,-0.071564,-0.388882,-0.200041
2128,-0.442104,0.119481,0.451666
2129,-0.36787,0.453937,0.580462
2130,0.001825,1.115987,0.610823
2131,-0.220993,-0.144209,0.695781
2132,-0.242728,-0.515558,1.383758
2133,-0.290512,-0.395343,1.18718
2134,-0.345256,-0.06669,0.88221
2135,-0.436057,0.348605,1.006274
2136,-0.19195,0.414671,1.06071
2137,0.069228,0.424652,1.003425
2138,0.21593,0.300747,0.308763
2139,0.552171,0.178605,-0.327006
2140,0.509472,0.013467,0.12122
2141,0.126724,-0.22284,0.150108
2142,0.223786,0.116152,-0.042474
2143,0.172762,0.158707,0.127309
2144,0.038766,0.054253,0.303433
2145,0.077433,-0.337379,0.52025
2146,0.132007,-0.337868,0.319883
2147,0.101843,-0.264001,0.27598
2148,0.033933,-0.029813,0.155009
2149,0.081033,0.178622,-0.106218
2150,0.099712,0.180417,-0.142857
2151,0.236025,0.451181,-0.254038
2152,0.508954,0.550968,-0.442349
2153,0.552909,0.515611,-0.397232
2154,0.692136,0.620341,0.173488
2155,0.457325,0.586761,-0.200835
2156,0.445532,0.583748,-0.177881
2157,0.186394,0.26901,-0.534714
2158,-0.061554,0.230727,-0.400982
2159,-0.06201,0.235605,-0.357375
2160,-0.209293,0.534675,0.989871
2161,-0.216181,0.546396,0.820014
2162,-0.482164,0.815938,0.696949
2163,-0.739547,0.740888,0.569762
2164,-0.650534,0.141913,0.355014
2165,-0.447143,0.082869,0.394313
2166,-0.073041,-0.030921,0.552294
2167,0.218426,-0.236026,0.806878
2168,0.254884,-0.286847,0.868682
2169,0.260169,-0.208511,0.83612
2170,0.132655,-0.292634,0.827622
2171,0.016222,-0.384719,0.841532
2172,-0.112597,-0.434317,0.831587
2173,-0.237385,-0.441014,0.769739
2174,-0.27192,-0.456265,0.778944
2175,-0.141993,-0.504751,0.760262
2176,-0.031603,-0.478798,0.708022
2177,0.15523,0.055884,-0.029515
2178,0.168396,1.100083,-1.994033
2179,-0.063257,1.378293,-0.888447
2180,-0.004958,0.921374,-0.878855
2181,0.06568,-0.273481,-0.107988
2182,-0.019735,-0.377721,0.105325
2183,-0.227541,-0.195288,0.145259
2184,-1.270818,2.353603,0.095982
2185,-0.704214,1.107872,0.156356
2186,-0.393123,-0.619123,2.141193
2187,-0.44386,-1.172156,0.935287
2188,-0.438927,-0.419928,1.237808
2189,-0.566285,-0.227279,1.870613
2190,-0.719645,0.758096,1.181487
2191,-0.431828,0.877913,1.247582
2192,-0.400408,0.874209,1.243339
2193,0.24036,0.846733,-0.132941
2194,0.642306,0.207959,0.463905
2195,0.679186,0.183571,0.385201
2196,0.280937,-0.046826,0.068527
2197,0.108585,0.075462,-0.050048
2198,-0.071816,0.030625,0.142586
2199,-0.105833,-0.035282,0.114878
2200,-0.015665,-0.20828,0.162134
2201,0.091871,-0.360539,0.127147
2202,0.146089,-0.290637,0.042318
2203,0.045261,-0.1751,0.26224
2204,0.020914,-0.154488,0.481102
2205,0.039624,-0.232927,0.370412
2206,-0.234205,-0.175478,0.130396
2207,-0.389563,-0.096985,-0.040732
2208,-0.533156,0.128376,-0.086479
2209,-0.245563,0.215004,0.128711
2210,-0.069101,0.283379,-0.020397
2211,0.099874,0.442178,-0.232212
2212,0.209695,0.51476,-0.154913
2213,0.333136,0.510444,-0.202087
2214,0.454926,0.540466,-0.24075
2215,0.169202,0.447072,-0.311341
