,userAcceleration.x,userAcceleration.y,userAcceleration.z
0,0.203402,0.408959,-0.010558
1,0.188601,0.524281,0.073931
2,0.142569,0.553769,0.150279
3,0.025349,0.05277,-0.09163
4,-0.170481,-0.195758,-0.129413
5,-0.242721,-0.268916,-0.139041
6,-0.208625,-0.409704,-0.154884
7,-0.016516,-0.405436,-0.082855
8,0.060384,-0.394213,-0.043084
9,0.191371,-0.472525,0.094075
10,0.214741,-0.492641,0.216939
11,0.183316,-0.497663,0.245558
12,0.092854,-0.446359,0.199437
13,0.01164,-0.325767,0.114604
14,-0.069973,-0.21942,0.048382
15,-0.078317,-0.102602,0.015674
16,0.001601,-0.027979,-0.037218
17,0.110894,0.107028,0.025472
18,0.157734,0.336615,0.117447
19,0.119045,0.622608,0.135367
20,0.108402,0.621519,0.132037
21,0.019466,0.935977,0.178693
22,0.056924,0.812375,0.216294
23,0.051282,0.671388,0.18895
24,0.287605,0.002631,-0.221443
25,0.344651,-0.008886,-0.397053
26,0.236298,-0.052413,-0.366105
27,0.152822,-0.175268,-0.245583
28,-0.238034,0.000873,-0.25168
29,-0.271965,0.034201,-0.298738
30,-0.264282,0.02206,-0.322211
31,-0.034244,0.093724,-0.167443
32,0.133127,0.020126,-0.082833
33,0.199025,0.016314,-0.041345
34,0.325258,-0.303457,0.069789
35,0.319411,-0.396462,0.085756
36,0.15138,-0.489414,0.022251
37,0.074207,-0.468537,0.027568
38,-0.104322,-0.300717,-0.027646
39,-0.196768,-0.244301,-0.054459
40,-0.208324,-0.217692,-0.054304
41,-0.228427,-0.22503,0.010998
42,-0.092565,-0.386655,0.067897
43,-0.052572,-0.341635,0.079793
44,0.0373,-0.219802,0.16314
45,-0.00906,-0.046282,0.162019
46,-0.136433,0.156655,0.157094
47,-0.157515,0.208809,0.20426
48,-0.227426,0.346982,0.128701
49,-0.223439,0.501004,0.017577
50,-0.278172,0.620098,0.091472
51,-0.28801,0.699687,-0.115772
52,-0.184849,0.733938,-0.222118
53,0.056873,0.372277,-0.382381
54,0.493302,-0.002713,-0.447577
55,0.386819,-0.229148,-0.447892
56,0.348446,-0.213325,-0.360769
57,0.388,0.136077,-0.004763
58,0.372372,0.45512,0.210667
59,0.294789,0.542015,0.247133
60,0.080446,0.376834,0.029577
61,-0.147465,0.039937,-0.163628
62,-0.314002,-0.154083,-0.218101
63,-0.334553,-0.276949,-0.189695
64,-0.231562,-0.36843,-0.107784
65,-0.120084,-0.40387,-0.058435
66,0.169488,-0.53599,0.075577
67,0.257969,-0.576574,0.196779
68,0.287342,-0.577636,0.294129
69,0.207163,-0.543051,0.308734
70,0.090564,-0.440579,0.267785
71,0.025998,-0.362284,0.201035
72,-0.065588,-0.139862,-0.109622
73,-0.0309,-0.160991,-0.199237
74,0.036925,-0.044497,-0.154915
75,0.1535,0.395191,0.24475
76,-0.080622,0.491591,0.406596
77,0.049992,0.605304,0.117304
78,0.048791,0.413409,0.085168
79,0.159903,0.772596,0.260658
80,0.067328,1.013891,0.329677
81,0.11798,0.465815,0.001782
82,0.442425,-0.039618,-0.589322
83,0.536293,0.009936,-0.625404
84,0.354598,0.03307,-0.34233
85,-0.089295,0.053976,-0.049119
86,-0.152558,0.102183,-0.106451
87,-0.270272,0.067704,-0.273101
88,-0.143636,-0.011522,-0.294402
89,0.049627,-0.063286,-0.143709
90,0.192858,-0.120543,-0.069132
91,0.232065,-0.167916,-0.010294
92,0.304874,-0.300367,0.095123
93,0.305236,-0.437355,0.067861
94,0.122287,-0.502498,0.016386
95,-0.043801,-0.394863,0.000739
96,-0.136655,-0.368277,-0.063883
97,-0.163951,-0.335555,-0.11864
98,-0.138065,-0.320122,-0.052176
99,-0.056203,-0.327008,0.091242
100,0.083576,-0.143281,0.252454
101,0.113866,-0.009157,0.273582
102,0.061674,0.014164,0.260493
103,-0.122079,0.02716,0.206851
104,-0.248536,0.102231,0.233498
105,-0.296451,0.157293,0.260993
106,-0.367018,0.476589,-0.011416
107,-0.333513,0.742314,0.036499
108,-0.202786,0.7745,-0.160525
109,-0.01017,0.718875,-0.399051
110,0.258052,0.446664,-0.321873
111,0.423077,-0.023858,-0.459169
112,0.325441,-0.218959,-0.491428
113,0.167406,-0.073909,-0.316118
114,0.262272,0.188752,-0.079978
115,0.090835,0.60562,0.264344
116,0.045973,0.613373,0.21425
117,0.022307,0.350541,-0.048917
118,-0.048164,-0.107146,-0.18572
119,-0.142747,-0.355258,-0.173121
120,-0.175195,-0.421196,-0.13364
121,-0.031554,-0.443838,-0.040251
122,0.121312,-0.441236,0.025287
123,0.155927,-0.55504,0.076231
124,0.150396,-0.629632,0.138317
125,0.154462,-0.723297,0.252562
126,0.065422,-0.69118,0.243896
127,0.017376,-0.495502,0.169863
128,-0.0427,-0.129833,0.036479
129,-0.082031,0.13293,0.017465
130,0.136555,0.230989,0.031202
131,0.292198,0.354634,0.131849
132,0.051322,0.591246,0.30043
133,-0.111906,0.17256,0.066247
134,-0.018306,0.441761,0.147406
135,-0.035247,0.781604,0.335907
136,-0.067038,1.094061,0.355262
137,0.104789,0.495813,-0.170931
138,0.276646,0.031817,-0.662051
139,0.532353,-0.003669,-0.715982
140,0.283638,0.026857,-0.234185
141,0.023143,-0.007475,0.047798
142,-0.224728,-0.045052,-0.152415
143,-0.214641,-0.020592,-0.334149
144,0.007422,-0.010778,-0.224552
145,0.13417,-0.068869,-0.10831
146,0.254348,-0.087638,0.005117
147,0.303,-0.090813,0.043755
148,0.385731,-0.305137,0.069426
149,0.305342,-0.385131,0.016929
150,0.134958,-0.47693,-0.043788
151,-0.015108,-0.415621,-0.099683
152,-0.144452,-0.404732,-0.13591
153,-0.212845,-0.413134,-0.134328
154,-0.197183,-0.328,-0.018708
155,-0.110377,-0.244595,0.096404
156,0.058302,-0.104969,0.237371
157,0.162347,-0.061856,0.274503
158,0.084032,0.03996,0.228299
159,-0.030317,0.0909,0.21777
160,-0.222515,0.25362,0.223914
161,-0.280296,0.116852,0.26123
162,-0.368739,0.24093,0.156203
163,-0.293399,0.76205,0.13034
164,-0.28392,0.76377,0.145131
165,0.030805,0.475739,-0.335121
166,0.583556,0.124928,-0.415225
167,0.599583,0.127693,-0.412933
168,0.379659,-0.123854,-0.476125
169,0.297944,0.001697,-0.363658
170,0.314013,0.259678,-0.120032
171,0.243653,0.569064,0.198643
172,0.106499,0.651812,0.345259
173,0.071359,0.393722,0.062725
174,-0.068967,-0.078361,-0.159016
175,-0.258112,-0.351703,-0.184897
176,-0.290931,-0.451373,-0.183495
177,-0.184446,-0.477108,-0.139095
178,0.016785,-0.438618,-0.053351
179,0.092714,-0.502068,0.036724
180,0.155279,-0.681085,0.232684
181,0.162094,-0.696994,0.294341
182,0.089308,-0.684379,0.346065
183,0.017499,-0.489067,0.172749
184,-0.020697,-0.407385,0.064319
185,-0.03926,-0.023541,-0.150692
186,0.061942,0.355163,0.061223
187,0.113554,0.670881,0.230412
188,-0.21751,0.832688,0.314085
189,-0.20913,0.109498,0.23909
190,0.068904,0.163114,0.087934
191,0.153206,0.314503,0.412158
192,0.311749,0.780411,0.283835
193,0.039162,0.929616,0.114901
194,0.296001,0.367419,-0.480835
195,0.566258,0.059963,-0.954419
196,0.44939,0.13766,-0.508727
197,0.270617,0.155895,-0.244673
198,-0.294787,-0.020453,-0.044788
199,-0.368312,-0.138338,-0.213963
200,-0.09289,-0.038919,-0.193944
201,0.127672,0.003662,-0.150122
202,0.301214,-0.075192,-0.055431
203,0.380268,-0.093974,0.015113
204,0.434632,-0.271983,0.126925
205,0.44785,-0.288789,0.150717
206,0.372335,-0.315498,0.129189
207,0.018488,-0.491336,0.051239
208,-0.153011,-0.495373,-0.05736
209,-0.244952,-0.537804,-0.146801
210,-0.2964,-0.552166,-0.165063
211,-0.275668,-0.436814,-0.020977
212,-0.143911,-0.256197,0.180854
213,0.03019,-0.010633,0.305134
214,0.122357,0.023255,0.313622
215,0.031873,0.179642,0.299848
216,-0.158136,0.325132,0.349522
217,-0.207749,0.229488,0.323982
218,-0.317368,0.533314,-0.106125
219,-0.41481,0.815283,-0.001813
220,-0.341751,0.709458,-0.307374
221,0.095097,0.569016,-0.455862
222,0.525837,0.057505,-0.435975
223,0.392226,-0.057158,-0.399854
224,0.288827,0.062582,-0.295966
225,0.340127,0.338294,-0.05594
226,0.193656,0.590351,0.251688
227,0.036547,0.588063,0.309364
228,-0.017122,0.22315,0.00957
229,-0.106981,-0.211052,-0.194756
230,-0.183139,-0.324786,-0.227862
231,-0.239348,-0.500692,-0.234104
232,-0.018178,-0.526676,-0.150614
233,0.179808,-0.484293,1.20E-05
234,0.243397,-0.493955,0.148316
235,0.222449,-0.534327,0.222347
236,0.12653,-0.714517,0.401294
237,0.086731,-0.714028,0.29651
238,-0.062667,-0.630847,0.061831
239,-0.116588,-0.216476,-0.111354
240,-0.127358,0.053001,-0.098057
241,-0.017777,0.17889,0.022392
242,0.154425,0.50555,0.264864
243,-0.000135,0.72014,0.461772
244,0.216209,0.625892,0.140698
245,-0.012623,0.524649,0.12222
246,-0.036721,0.544811,0.148493
247,0.013415,0.840285,0.257396
248,0.033994,0.511762,-0.172251
249,0.118599,0.258992,-0.435023
250,0.394881,0.075663,-0.605969
251,0.279533,0.138252,-0.419862
252,-0.146252,0.141595,-0.079486
253,-0.255378,-0.0305,-0.237641
254,-0.190625,-0.07876,-0.279946
255,0.098956,-0.029091,-0.143077
256,0.151875,-0.033867,-0.039918
257,0.225086,-0.156114,0.002352
258,0.410885,-0.294844,0.085254
259,0.413395,-0.376076,0.100998
260,0.247168,-0.462103,0.029541
261,0.117219,-0.534119,0.01631
262,-0.199362,-0.413087,-0.116419
263,-0.233495,-0.394864,-0.147532
264,-0.253801,-0.358,-0.133359
265,-0.110606,-0.343953,0.090394
266,-0.034166,-0.332142,0.170581
267,0.196953,-0.057992,0.254072
268,0.209082,-0.004841,0.196447
269,0.011717,0.009797,0.170483
270,-0.180963,0.163137,0.221864
271,-0.325587,0.248101,0.209023
272,-0.457677,0.334568,-0.083635
273,-0.526149,0.549277,0.254739
274,-0.387877,0.702327,-0.010805
275,-0.121311,0.71126,-0.284994
276,0.179488,0.492019,-0.441457
277,0.439968,0.190347,-0.573191
278,0.502594,0.010238,-0.62474
279,0.354699,0.038139,-0.403478
280,0.402835,0.249676,-0.139789
281,0.430382,0.363967,0.046982
282,0.269437,0.513492,0.343919
283,0.174723,0.325526,0.095779
284,-0.023823,-0.072222,-0.179159
285,-0.216356,-0.334174,-0.224688
286,-0.335725,-0.437484,-0.201106
287,-0.358702,-0.467462,-0.160545
288,-0.078431,-0.423192,-0.023401
289,0.134596,-0.402803,0.131376
290,0.153126,-0.50181,0.19038
291,0.203879,-0.489084,0.220132
292,0.120678,-0.529613,0.317379
293,0.123777,-0.528799,0.314286
294,-0.037705,-0.386147,0.151349
295,-0.148371,-0.338301,-0.035072
296,-0.091566,-0.272898,-0.082393
297,0.18547,0.012147,-0.006246
298,0.083737,0.48641,0.274625
299,-0.077321,0.711497,0.297799
300,-0.112461,0.608351,0.008455
301,-0.175511,0.437451,0.127412
302,-0.002251,0.48986,0.195578
303,0.064463,0.824495,0.415008
304,0.12878,0.349409,-0.22871
305,0.343635,0.117927,-0.531788
306,0.466095,0.139607,-0.714633
307,0.242669,-0.033403,-0.139674
308,0.046808,-0.076036,-0.072268
309,-0.131656,-0.070603,-0.069852
310,-0.186502,-0.052964,-0.356155
311,-0.080286,-0.060072,-0.232206
312,0.173011,0.001245,-0.006019
313,0.333695,-0.067443,0.066352
314,0.437105,-0.124951,0.113937
315,0.459385,-0.335988,0.114244
316,0.429389,-0.326715,0.06603
317,0.183949,-0.462609,0.032812
318,-0.113454,-0.330537,-0.061334
319,-0.22921,-0.308522,-0.1119
320,-0.242629,-0.314995,-0.107931
321,-0.218918,-0.433201,-0.020983
322,-0.141353,-0.459162,0.124542
323,-0.013219,-0.22048,0.232283
324,0.113288,-0.067129,0.250423
325,0.075041,-0.014321,0.108943
326,-0.141058,0.014812,0.118726
327,-0.248092,0.167998,0.252072
328,-0.272458,0.260296,0.22682
329,-0.330122,0.378552,-0.018467
330,-0.403758,0.596059,0.112365
331,-0.388207,0.667519,-0.083108
332,-0.298306,0.756833,-0.193051
333,0.109511,0.612928,-0.360997
334,0.5322,0.406042,-0.538039
335,0.497532,0.046385,-0.571668
336,0.325784,-0.018681,-0.366177
337,0.335137,0.190209,-0.032034
338,0.33767,0.28946,0.123966
339,0.136878,0.381619,0.319934
340,0.042636,0.148873,0.071104
341,-0.067947,-0.201742,-0.162747
342,-0.168135,-0.347592,-0.192889
343,-0.228234,-0.415058,-0.186862
344,-0.232729,-0.425725,-0.166073
345,0.0758,-0.409397,0.014388
346,0.147303,-0.488583,0.089727
347,0.16609,-0.531059,0.133788
348,0.151563,-0.573064,0.288179
349,0.05408,-0.534482,0.287729
350,0.004032,-0.486399,0.252891
351,-0.149835,-0.118913,0.119584
352,-0.186519,0.030818,0.009089
353,-0.073358,0.005507,-0.053265
354,0.096447,0.185565,-0.002057
355,-0.171158,0.340794,0.235516
356,-0.215012,0.30873,0.289626
357,0.077734,0.292248,0.115663
358,0.015956,0.456419,0.322045
359,0.145222,0.634758,0.284621
360,0.068875,0.919275,0.243702
361,0.006139,0.882894,0.011955
362,0.249331,0.053335,-0.499333
363,0.602777,-0.166187,-0.802284
364,0.442284,0.070433,-0.339802
365,0.146222,0.128079,0.058692
366,-0.1229,0.133433,-0.129431
367,-0.154356,0.094123,-0.227867
368,-0.025212,0.055794,-0.234016
369,0.148884,-0.093087,-0.136304
370,0.209217,-0.105689,-0.098168
371,0.316625,-0.122481,-0.029967
372,0.405515,-0.295174,0.093919
373,0.384918,-0.280761,0.105131
374,0.145843,-0.43736,0.069473
375,0.000179,-0.42999,0.017045
376,-0.100173,-0.461149,-0.048342
377,-0.145315,-0.437742,-0.078898
378,-0.206808,-0.368674,-0.022771
379,-0.16419,-0.380797,0.072401
380,-0.013399,-0.221191,0.181607
381,0.070364,-0.04542,0.196099
382,0.029199,-0.058813,0.108415
383,-0.100873,0.022401,0.103396
384,-0.179851,0.188934,0.210869
385,-0.22894,0.22973,0.269016
386,-0.275372,0.288732,-0.000395
387,-0.305031,0.415858,0.060366
388,-0.335211,0.687109,0.038353
389,-0.286141,0.682196,0.018025
390,0.151388,0.652348,-0.217056
391,0.470262,0.271746,-0.357844
392,0.549847,0.03236,-0.650992
393,0.39819,-0.137762,-0.448916
394,0.332616,0.177123,-0.185671
395,0.372147,0.371844,0.087255
396,0.278559,0.460982,0.316995
397,0.178779,0.401633,0.240518
398,0.000987,0.100774,-0.059854
399,-0.134843,-0.058132,-0.134831
400,-0.39558,-0.355506,-0.192055
401,-0.374359,-0.400442,-0.203632
402,-0.185144,-0.481808,-0.132311
403,0.024635,-0.476727,-0.021361
404,0.158681,-0.559597,0.142444
405,0.232751,-0.55822,0.279162
406,0.294509,-0.551194,0.374991
407,0.209935,-0.569342,0.368785
408,0.222834,-0.498215,0.273464
409,-0.029822,-0.468036,0.108304
410,-0.068108,-0.250262,-0.081971
411,-0.100087,-0.088445,-0.168119
412,0.027325,0.210609,0.110363
413,-0.091022,0.702011,0.34761
414,-0.306945,0.772051,0.291017
415,0.191454,0.516022,0.003043
416,0.049721,0.405168,0.115042
417,0.164733,0.728354,0.481298
418,0.139536,0.831558,0.192649
419,0.124925,0.459911,-0.326276
420,0.501356,0.156909,-0.874858
421,0.389211,0.171961,-0.52008
422,0.058624,0.080054,-0.131513
423,0.119258,0.129617,0.04042
424,-0.200716,-0.091441,-0.26232
425,-0.107776,-0.101605,-0.219185
426,0.239169,-0.051448,-0.053528
427,0.310391,-0.050997,-0.025918
428,0.379658,-0.111361,-0.015329
429,0.400632,-0.2541,0.05782
430,0.358655,-0.415039,0.081027
431,0.220754,-0.421238,0.026262
432,0.026141,-0.432732,0.028719
433,-0.130481,-0.345713,-0.019945
434,-0.197439,-0.391502,-0.081311
435,-0.227534,-0.367086,-0.04119
436,-0.216807,-0.324209,0.051235
437,-0.079306,-0.275035,0.123787
438,0.042763,-0.140357,0.18493
439,0.058142,-0.020728,0.269281
440,0.013546,-0.031769,0.328965
441,-0.064615,0.031157,0.358399
442,-0.216968,0.283548,0.202778
443,-0.215543,0.284082,0.214673
444,-0.398317,0.610742,0.113712
445,-0.3025,0.745061,-0.155348
446,-0.286306,0.74877,-0.137158
447,0.216651,0.60852,-0.340121
448,0.582995,0.053167,-0.395964
449,0.489241,-0.168004,-0.464007
450,0.290713,-0.138039,-0.366297
451,0.302145,0.272583,0.003842
452,0.281337,0.414949,0.160965
453,0.172542,0.590372,0.361443
454,0.186425,0.474709,0.15609
455,0.189932,0.266345,-0.038185
456,-0.147186,-0.323523,-0.107438
457,-0.276992,-0.460733,-0.110855
458,-0.277311,-0.476514,-0.101474
459,-0.053191,-0.454202,-0.028992
460,0.063974,-0.467494,0.056063
461,0.079849,-0.516868,0.159432
462,0.161405,-0.571986,0.316256
463,0.098467,-0.625536,0.320264
464,0.034703,-0.471978,0.259563
465,-0.029087,-0.307782,0.175986
466,-0.106525,-0.122698,-0.0192
467,-0.006279,0.067564,-0.053142
468,0.172485,0.289795,0.096779
469,0.000435,0.737216,0.31599
470,-0.168033,0.719242,0.281342
471,-0.004855,0.416759,0.193286
472,0.138156,0.444882,0.314083
473,0.195788,0.653132,0.413272
474,-0.010702,0.824243,0.222724
475,0.185879,0.132113,-0.429919
476,0.532681,0.075368,-0.831646
477,0.35623,0.174851,-0.373632
478,0.104465,0.102489,0.002404
479,-0.129962,0.036406,-0.083457
480,-0.228618,-0.076102,-0.343427
481,-0.056407,-0.048875,-0.256736
482,0.099979,-0.099389,-0.143381
483,0.22983,-0.090059,-0.012699
484,0.316724,-0.147447,0.123064
485,0.437345,-0.245851,0.193544
486,0.398818,-0.420682,0.155215
487,0.242896,-0.414162,0.068988
488,0.022425,-0.418395,0.04853
489,-0.115111,-0.343017,-0.02401
490,-0.211268,-0.331821,-0.077518
491,-0.26241,-0.308987,-0.053282
492,-0.238669,-0.360932,0.028654
493,-0.100086,-0.388138,0.135323
494,-0.02376,-0.274977,0.197637
495,0.147569,-0.015601,0.268763
496,0.013465,0.018265,0.311414
497,0.002152,0.016765,0.314392
498,-0.206027,0.266989,0.375976
499,-0.315282,0.466915,0.012024
500,-0.388789,0.59271,0.003201
501,-0.390416,0.779396,0.01772
502,-0.087397,0.682537,-0.319296
503,0.094871,0.675396,-0.389872
504,0.553052,0.133259,-0.379669
505,0.468466,-0.121558,-0.476561
506,0.247528,-0.151401,-0.397899
507,0.283226,0.082074,-0.180918
508,0.373643,0.428205,0.094291
509,0.289749,0.654428,0.284157
510,0.276575,0.511285,0.184377
511,0.171243,0.009123,-0.090706
512,-0.068774,-0.32101,-0.125668
513,-0.244981,-0.451161,-0.086628
514,-0.298568,-0.520905,-0.059473
515,-0.115915,-0.48772,-0.029425
516,0.057116,-0.514513,0.081982
517,0.083092,-0.526816,0.136793
518,0.135054,-0.531323,0.306698
519,0.139382,-0.440475,0.412367
520,0.06831,-0.332711,0.324482
521,0.027046,-0.277709,0.246236
522,-0.061072,-0.159155,-0.072899
523,0.001767,-0.106923,-0.127469
524,0.103981,0.116763,0.100734
525,-0.000684,0.609985,0.461221
526,-0.159231,0.636227,0.551852
527,0.104267,0.497031,0.110698
528,0.012601,0.511469,0.278991
529,0.150672,0.804895,0.407151
530,0.092841,0.94594,0.266155
531,0.112677,0.600317,-0.073917
532,0.443717,-0.12102,-0.686626
533,0.416117,0.055711,-0.622806
534,0.178782,0.115728,-0.142686
535,-0.123099,0.012927,-0.031696
536,-0.375376,-0.105183,-0.270039
537,-0.384653,-0.109692,-0.331901
538,-0.031154,0.009012,-0.152324
539,0.14684,-0.034716,-0.085328
540,0.236431,-0.040424,-0.033118
541,0.50292,-0.195201,0.154821
542,0.482179,-0.28865,0.181344
543,0.438552,-0.322569,0.138324
544,-0.009515,-0.446138,0.058318
545,0.004041,-0.443713,0.060322
546,-0.195762,-0.422732,-0.09717
547,-0.226989,-0.411462,-0.108137
548,-0.211566,-0.378396,-0.058094
549,-0.076538,-0.393041,0.089712
550,0.164191,0.049995,0.2225
551,0.205698,0.032881,0.248052
552,0.221933,0.017527,0.276668
553,-0.101257,0.178203,0.355733
554,-0.14035,0.205992,0.37013
555,-0.1984,0.263935,0.289599
556,-0.40947,0.365952,-0.031617
557,-0.382049,0.611912,0.086299
558,-0.338622,0.759933,-0.034063
559,-0.137219,0.671435,-0.327007
560,0.20992,0.427378,-0.403132
561,0.351648,-0.123945,-0.479304
562,0.238478,-0.192382,-0.457874
563,0.100799,-0.121581,-0.282236
564,0.327223,0.376521,0.105367
565,0.264389,0.52181,0.285997
566,0.211459,0.467889,0.292961
567,0.117145,0.00831,-0.044743
568,0.004898,-0.187768,-0.165037
569,-0.176204,-0.414914,-0.191583
570,-0.307351,-0.386264,-0.110117
571,-0.255001,-0.353347,-0.063528
572,-0.082146,-0.313342,-0.001739
573,0.071883,-0.421918,0.09749
574,0.15322,-0.503914,0.194381
575,0.154767,-0.557004,0.321909
576,0.126612,-0.552337,0.317315
577,0.05799,-0.454146,0.25822
578,-0.040518,-0.320545,0.217493
579,-0.063531,-0.111007,0.079078
580,-0.016264,-0.057668,-0.028692
581,0.119365,0.120792,0.010234
582,0.118467,0.368641,0.100171
583,-0.346784,0.59293,0.31988
584,-0.142919,0.323388,0.068256
585,0.025207,0.416975,0.125566
586,0.021744,0.620361,0.403304
587,-0.033344,1.126455,0.404035
588,0.007817,0.642398,-0.06458
589,0.399027,-0.04607,-0.692711
590,0.510829,0.169828,-0.650711
591,0.27177,0.108698,-0.119362
592,0.127663,-0.09594,0.080218
593,-0.034008,-0.096253,-0.00905
594,-0.280162,-0.087316,-0.329639
595,-0.05732,-0.072484,-0.181843
596,0.086428,-0.083139,-0.07459
597,0.209554,0.003382,-0.043466
598,0.343187,-0.332702,0.109072
599,0.433293,-0.238406,0.135463
600,0.39105,-0.281686,0.119137
601,0.135515,-0.463057,0.092213
602,0.068162,-0.427986,0.076812
603,-0.080317,-0.353432,-0.003952
604,-0.186536,-0.335434,-0.042084
605,-0.199067,-0.366262,-0.011185
606,-0.030511,-0.396815,0.075951
607,0.029686,-0.288543,0.139618
608,0.122942,0.026354,0.227994
609,0.013464,0.001207,0.159647
610,-0.251247,0.047922,0.215687
611,-0.28514,0.185995,0.284828
612,-0.225622,0.240416,0.246995
613,-0.23416,0.340458,0.009044
614,-0.357579,0.593868,0.200762
615,-0.297659,0.582165,0.031907
616,-0.081455,0.681248,-0.192424
617,0.288703,0.520931,-0.340764
618,0.44487,0.304537,-0.359502
619,0.444341,-0.161732,-0.515393
620,0.208275,-0.052403,-0.312271
621,0.250879,0.263971,-0.111516
622,0.254325,0.549514,0.191184
623,0.142522,0.571764,0.357072
624,0.092511,0.298339,0.131279
625,-0.0652,-0.253747,-0.111488
626,-0.149533,-0.341449,-0.1161
627,-0.229328,-0.409006,-0.124208
628,-0.118589,-0.48274,-0.092491
629,-0.000781,-0.473998,-0.025285
630,0.061942,-0.468659,0.023998
631,0.135667,-0.613095,0.246764
632,0.157832,-0.605415,0.304601
633,0.165251,-0.583114,0.356555
634,0.016296,-0.400807,0.300439
635,-0.022827,-0.313295,0.2268
636,-0.046533,-0.215337,0.143191
637,0.085169,0.06128,-0.104515
638,0.09128,0.123085,-0.041374
639,0.121385,0.424757,0.110564
640,-0.252504,0.565908,0.299713
641,-0.092034,0.152961,0.11556
642,-0.010173,0.439538,0.233169
643,-0.105373,0.607943,0.525661
644,-0.002409,0.938626,0.55677
645,0.110207,0.617878,0.065911
646,0.336697,-0.065171,-0.611041
647,0.620554,-0.04465,-0.868839
648,0.327247,0.117541,-0.065136
649,0.003709,0.096598,0.131145
650,-0.157905,0.107843,0.000324
651,-0.233846,0.044765,-0.219954
652,0.011398,-0.029972,-0.131741
653,0.129749,-0.023339,-0.060845
654,0.340455,-0.293086,-0.008955
655,0.464306,-0.219026,0.053798
656,0.431493,-0.301353,0.164956
657,0.273351,-0.306251,0.099045
658,0.190427,-0.388281,0.080396
659,0.017463,-0.399914,-0.060498
660,-0.051859,-0.384342,-0.117272
661,-0.120126,-0.323342,-0.034084
662,-0.180046,-0.244615,0.060988
663,-0.091063,-0.296344,0.167902
664,0.07938,-0.284594,0.241429
665,0.081987,-0.111844,0.2962
666,0.037751,-0.202535,0.249778
667,-0.200389,-0.061407,0.261303
668,-0.322516,0.049351,0.313825
669,-0.320913,0.1653,0.249391
670,-0.343783,0.350342,0.05821
671,-0.369997,0.539599,0.15094
672,-0.335885,0.815785,-0.068009
673,0.145108,0.677871,-0.331344
674,0.161366,0.682423,-0.319766
675,0.606312,0.108351,-0.536117
676,0.370355,0.005353,-0.278721
677,0.357603,0.214242,-0.131841
678,0.42387,0.345561,0.025062
679,0.283355,0.682176,0.369224
680,0.226012,0.576691,0.241082
681,0.061677,0.073657,-0.140804
682,-0.228936,-0.316702,-0.231542
683,-0.302726,-0.372711,-0.188754
684,-0.344895,-0.488805,-0.13402
685,-0.158248,-0.631565,-0.054637
686,0.024029,-0.56664,0.069262
687,0.128784,-0.54878,0.181131
688,0.205788,-0.533144,0.302746
689,0.226959,-0.527803,0.387254
690,0.149769,-0.512818,0.341285
691,0.089194,-0.37755,0.227851
692,-0.055175,-0.171082,0.130784
693,-0.104415,0.090875,0.050053
694,-0.01619,0.185159,0.066869
695,0.180385,0.425255,0.214819
696,-0.037992,0.361947,0.308855
697,0.066973,0.187678,0.171543
698,0.144949,0.651232,0.323303
699,0.088054,1.219021,0.445042
700,0.012234,1.263309,0.360207
701,0.088051,0.777235,0.039819
702,0.554356,-0.214935,-0.736199
703,0.489961,-0.083284,-0.472687
704,0.225027,-0.057824,-0.035961
705,-0.173608,-0.014781,0.067277
706,-0.440163,0.064242,-0.131674
707,-0.334449,0.070314,-0.280628
708,-0.011624,-0.045489,-0.2103
709,0.174713,-0.049869,-0.120058
710,0.308998,-0.03913,0.018016
711,0.427129,-0.125659,0.163014
712,0.484065,-0.320648,0.219839
713,0.390666,-0.453297,0.1329
714,0.315841,-0.551899,0.085865
715,-0.069744,-0.458766,-0.030186
716,-0.058939,-0.456599,-0.027035
717,-0.249865,-0.408797,-0.037697
718,-0.254571,-0.414428,0.021292
719,-0.228796,-0.394746,0.104147
720,-0.082506,-0.0989,0.252817
721,0.089312,0.034791,0.273983
722,0.087616,-0.019168,0.175589
723,-0.184128,0.073038,0.170862
724,-0.303568,0.134839,0.241383
725,-0.36474,0.222553,0.246246
726,-0.421112,0.44743,0.051773
727,-0.427169,0.689166,0.201064
728,-0.411648,0.697296,-0.064438
729,-0.088961,0.820197,-0.14747
730,0.267172,0.624631,-0.296614
731,0.605589,0.146384,-0.391511
732,0.46229,-0.067728,-0.440777
733,0.313715,-0.062705,-0.23667
734,0.328809,-0.060015,-0.244686
735,0.339803,0.420824,0.226773
736,0.208708,0.414894,0.244428
737,0.112799,0.056429,-0.014394
738,-0.129115,-0.292154,-0.105508
739,-0.271443,-0.348765,-0.141745
740,-0.307458,-0.377906,-0.121106
741,-0.206483,-0.381243,-0.072079
742,-0.014456,-0.419472,0.016353
743,0.083576,-0.495119,0.121258
744,0.15251,-0.616118,0.241932
745,0.190647,-0.58741,0.322938
746,0.123935,-0.55799,0.323928
747,0.090293,-0.396655,0.246138
748,0.016944,-0.21261,0.165818
749,-0.037269,-0.059142,0.047152
750,0.037805,-0.009541,0.01677
751,0.093323,0.196885,0.147828
752,0.03164,0.412752,0.260244
753,-0.329739,0.31306,0.294118
754,-0.13929,0.043688,0.160207
755,0.16465,0.491167,0.357284
756,-0.047505,0.520769,0.604415
757,0.112098,0.973773,0.355082
758,0.012658,1.079151,0.253951
759,0.466269,0.109561,-0.772724
760,0.648312,0.129443,-0.822762
761,0.492112,0.165523,-0.540933
762,-0.001654,0.037263,0.197795
763,-0.278592,-0.061845,-0.1434
764,-0.21636,-0.025831,-0.186526
765,-0.078465,-0.012011,-0.158647
766,0.202955,-0.120936,-0.015209
767,0.212799,-0.12109,0.013816
768,0.468513,-0.173991,0.051414
769,0.504626,-0.260483,0.097991
770,0.345953,-0.303319,0.108092
771,0.151743,-0.422841,0.105399
772,-0.006217,-0.391457,0.047237
773,-0.053065,-0.389754,-0.057793
774,-0.106287,-0.504657,-0.049047
775,-0.185821,-0.42301,0.064863
776,-0.213496,-0.419487,0.15382
777,-0.080231,-0.29295,0.219067
778,-0.020754,0.008242,0.252361
779,0.036723,0.060445,0.276756
780,-0.13842,0.173117,0.378541
781,-0.243322,0.321711,0.418406
782,-0.280401,0.42198,0.066868
783,-0.377622,0.761018,0.127689
784,-0.410468,0.747595,0.037839
785,-0.278176,0.667618,-0.145085
786,0.248832,0.225737,-0.480696
787,0.394182,0.08266,-0.509788
788,0.444444,0.056939,-0.467553
789,0.352531,0.104405,-0.116975
790,0.346793,0.342401,0.098615
791,0.291626,0.542159,0.203709
792,0.288225,0.554302,0.130779
793,0.133632,0.230288,-0.065479
794,-0.059582,-0.126933,-0.07288
795,-0.165659,-0.28892,-0.024284
796,-0.153888,-0.378899,-0.002435
797,-0.022887,-0.387751,0.010861
798,0.041618,-0.398984,0.027816
799,0.1586,-0.414564,0.151898
800,0.190283,-0.457603,0.249748
801,0.161529,-0.508947,0.287919
802,0.100929,-0.500575,0.262618
803,0.038597,-0.425139,0.227092
804,-0.032126,-0.32021,0.188897
805,-0.104842,-0.169,0.106312
806,-0.121587,-0.050245,0.096604
807,-0.090937,0.399597,0.215731
808,0.157186,0.366523,0.149475
809,0.255676,0.539934,0.126407
810,-0.019325,0.759146,0.331194
811,-0.086715,0.697519,0.393786
812,0.030913,0.57481,0.295107
813,0.399157,0.331034,-0.068615
814,0.47354,0.174221,-0.276906
815,0.433568,0.06532,-0.3277
816,0.237096,-0.175634,-0.291706
817,-0.104726,-0.035061,-0.125583
818,-0.255009,0.051163,-0.109235
819,-0.41823,0.062521,-0.210785
820,-0.147685,0.091878,-0.104922
821,-0.00041,0.124316,-0.051576
822,0.299611,0.041458,0.0455
823,0.435253,-0.112804,0.113524
824,0.469919,-0.314489,0.143675
825,0.40376,-0.317363,0.100247
826,0.218149,-0.41913,0.050148
827,0.069106,-0.437017,-0.009227
828,-0.063706,-0.373027,-0.053029
829,-0.164681,-0.32611,-0.071604
830,-0.179082,-0.357178,-0.024928
831,-0.157001,-0.398933,0.029787
832,0.039434,-0.377862,0.205086
833,0.079145,-0.289506,0.275986
834,0.147783,-0.088196,0.276935
835,0.101866,-0.068259,0.247969
836,-0.201471,0.108123,0.209857
837,-0.319494,0.17876,0.282462
838,-0.405663,0.260999,0.023489
839,-0.469636,0.513321,0.097212
840,-0.454274,0.657908,0.101934
841,-0.365677,0.780995,0.012342
842,-0.031928,0.65202,-0.114532
843,0.365847,0.36336,-0.335047
844,0.445208,0.047007,-0.491287
845,0.349903,-0.146847,-0.28666
846,0.299022,0.040719,-0.063281
847,0.337091,0.235346,0.154754
848,0.336066,0.359749,0.206553
849,0.161402,0.384853,0.170769
850,-0.055979,0.078676,-0.057267
851,-0.238262,-0.14716,-0.166841
852,-0.336749,-0.216637,-0.180711
853,-0.322834,-0.266762,-0.102558
854,-0.108857,-0.358034,0.020428
855,0.136546,-0.407934,0.101676
856,0.251925,-0.469609,0.20195
857,0.310641,-0.500606,0.31113
858,0.26313,-0.550748,0.36985
859,0.146657,-0.548584,0.352633
860,0.096415,-0.478983,0.30713
861,-0.071622,-0.345226,0.189877
862,-0.079176,-0.285113,0.075891
863,0.031486,-0.101054,-0.023511
864,0.05798,0.006648,0.004584
865,0.068102,0.578154,0.380149
866,-0.044002,0.778848,0.224578
867,0.079387,0.770679,0.119141
868,-0.215314,0.802613,0.377217
869,-0.27134,0.977962,0.502239
870,-0.046713,0.642878,0.297681
871,0.272947,-0.051266,-0.252221
872,0.433096,-0.175585,-0.49567
873,0.208145,0.067933,-0.440211
874,-0.050139,-0.06141,-0.087604
875,-0.197608,-0.043761,-0.138572
876,-0.345941,-0.052856,-0.251628
877,-0.004478,-0.090036,-0.114291
878,0.13591,-0.087069,-0.052789
879,0.327552,0.041216,0.088911
880,0.394971,-0.100245,0.155379
881,0.428191,-0.320588,0.154123
882,0.348625,-0.420576,0.118774
883,0.177001,-0.542727,0.086546
884,0.007515,-0.491658,0.07388
885,-0.09144,-0.4506,0.010538
886,-0.143791,-0.434392,-0.072883
887,-0.080725,-0.451425,-0.049175
888,-0.088844,-0.220273,0.179448
889,-0.024401,0.006889,0.291354
890,0.01875,0.062969,0.306636
891,-0.114413,0.012347,0.274887
892,-0.316367,0.108712,0.269491
893,-0.377754,0.325998,0.107907
894,-0.308734,0.491441,0.034886
895,-0.3477,0.676594,0.026791
896,-0.325544,0.848968,0.127819
897,-0.232263,0.813892,0.099853
898,0.231446,0.435558,-0.37562
899,0.55765,0.196197,-0.524885
900,0.524836,0.006886,-0.402752
901,0.396629,-0.071282,-0.139452
902,0.358223,-0.028075,-0.032061
903,0.269714,0.146144,0.214231
904,0.19458,0.235327,0.155146
905,0.128856,0.223681,0.050296
906,-0.148848,0.050506,-0.047185
907,-0.229206,-0.085767,-0.073293
908,-0.249852,-0.12887,-0.089589
909,-0.126162,-0.277423,0.00991
910,0.049846,-0.386616,0.093182
911,0.09089,-0.423668,0.100611
912,0.197554,-0.608861,0.20653
913,0.181101,-0.667346,0.298545
914,0.089668,-0.60004,0.338045
915,0.009672,-0.450244,0.335857
916,-0.035662,-0.251444,0.175387
917,-0.037402,-0.121711,0.020236
918,0.117271,-0.051491,0.025361
919,0.285943,0.415128,0.336782
920,0.044984,0.697942,0.465874
921,-0.245684,0.753898,0.550448
922,0.030329,0.106715,0.125754
923,0.044367,0.318767,0.240921
924,0.027864,0.425069,0.455546
925,-0.151878,1.24793,0.331886
926,0.137294,0.739661,-0.136181
927,0.427548,-0.027592,-0.880366
928,0.365969,0.072444,-0.407127
929,0.235969,0.097616,-0.060055
930,0.153133,0.02333,0.143243
931,-0.33808,-0.193202,-0.15954
932,-0.169761,-0.132241,-0.261512
933,-0.005203,-0.098526,-0.213025
934,0.133979,-0.089739,-0.136161
935,0.244716,-0.068904,-0.091527
936,0.385425,-0.163878,0.124892
937,0.405317,-0.242454,0.290661
938,0.278699,-0.304661,0.298231
939,0.146628,-0.412211,0.188455
940,0.061554,-0.437126,0.015271
941,0.003297,-0.452707,-0.035313
942,-0.116818,-0.368931,0.019485
943,-0.229739,-0.293271,0.156926
944,-0.184672,-0.195035,0.258454
945,-0.093654,-0.085145,0.288153
946,-0.101704,0.079221,0.275947
947,-0.116174,0.117144,0.309766
948,-0.211218,0.244916,0.331416
949,-0.290428,0.349732,0.248358
950,-0.374438,0.532179,0.097872
951,-0.24307,0.698826,0.069255
952,-0.255425,0.719739,-0.147458
953,-0.16941,0.728468,-0.234084
954,0.221649,0.2925,-0.378067
955,0.432712,-0.02159,-0.468047
956,0.451225,-0.016726,-0.461884
957,0.325374,0.127991,-0.108813
958,0.338189,0.342569,0.266445
959,0.199282,0.539889,0.413215
960,0.184602,0.548996,0.339148
961,-0.043451,-0.197314,-0.131913
962,-0.121909,-0.293209,-0.160204
963,-0.203486,-0.353559,-0.144554
964,-0.304716,-0.406358,-0.040616
965,-0.087311,-0.433003,0.058752
966,-0.001663,-0.434991,0.079772
967,0.145796,-0.521387,0.208913
968,0.159612,-0.595349,0.322091
969,0.111666,-0.56823,0.398423
970,0.050486,-0.531402,0.367388
971,0.0212,-0.449611,0.295349
972,-0.160209,-0.113243,0.027936
973,-0.077508,0.098579,-0.034483
974,0.05388,0.159385,0.061353
975,0.171512,0.23834,0.164593
976,-0.030847,0.208114,0.157821
977,0.182793,0.292799,0.027478
978,-0.099019,0.811908,0.498657
979,-0.018052,1.033061,0.431255
980,0.05496,0.960166,0.241896
981,0.460214,-0.073675,-0.268375
982,0.532578,0.037389,-0.503688
983,0.456663,0.120118,-0.424235
984,0.151838,-0.029461,-0.064084
985,-0.249439,-0.118019,-0.099157
986,-0.426307,-0.064257,-0.320487
987,-0.313746,-0.07274,-0.295577
988,-0.054052,-0.051885,-0.160888
989,0.097563,-0.013681,-0.075076
990,0.386299,-0.147069,0.156445
991,0.495028,-0.282766,0.251844
992,0.504551,-0.327142,0.265065
993,0.243497,-0.450907,0.126198
994,0.033963,-0.454417,0.063175
995,-0.042916,-0.411647,0.024314
996,-0.217991,-0.349479,-0.075817
997,-0.224191,-0.342007,-0.058405
998,-0.089806,-0.402437,0.056355
999,0.024713,-0.327659,0.170452
1000,0.111318,-0.029568,0.321633
1001,0.126391,0.001794,0.336495
1002,-0.062688,-0.085844,0.279286
1003,-0.336491,0.218132,0.225752
1004,-0.346411,0.342014,0.242338
1005,-0.342229,0.281605,0.091204
1006,-0.443891,0.549778,0.085095
1007,-0.444179,0.67415,0.206398
1008,-0.436015,0.674221,0.016177
1009,-0.039792,0.515419,-0.377476
1010,0.179875,0.377729,-0.362045
1011,0.427614,0.016352,-0.50307
1012,0.363179,-0.027422,-0.326469
1013,0.365433,0.05069,-0.250373
1014,0.336776,0.434016,0.25862
1015,0.198088,0.59057,0.482527
1016,0.138352,0.631392,0.425552
1017,0.058688,0.057129,-0.129319
1018,-0.088391,-0.302901,-0.236791
1019,-0.249744,-0.442609,-0.170555
1020,-0.287926,-0.495081,-0.087315
1021,-0.016473,-0.538154,0.020368
1022,0.155033,-0.50127,0.090942
1023,0.254681,-0.495307,0.160736
1024,0.295212,-0.594088,0.275543
1025,0.232248,-0.597225,0.370677
1026,0.120993,-0.58012,0.340844
1027,0.001734,-0.456183,0.221739
1028,-0.053002,-0.281108,0.056773
1029,-0.05633,-0.06952,-0.043345
1030,-0.044678,0.025791,-0.006332
1031,0.008745,0.419345,0.189395
1032,-0.300505,0.620918,0.349893
1033,-0.268284,0.309127,0.260703
1034,0.125135,0.216787,0.139238
1035,0.111152,0.698504,0.541422
1036,0.029263,0.939357,0.539424
1037,0.160756,0.475724,-0.09884
1038,0.546564,0.168791,-0.835869
1039,0.583497,0.294129,-0.668155
1040,0.245328,0.296425,-0.100354
1041,-0.052634,0.15137,0.188981
1042,-0.285427,-0.065605,-0.205062
1043,-0.154489,-0.160133,-0.352336
1044,0.163853,-0.087928,-0.22841
1045,0.259183,-0.05112,-0.056378
1046,0.404631,-0.094309,0.069987
1047,0.512231,-0.168763,0.196519
1048,0.501378,-0.273679,0.271063
1049,0.246611,-0.304455,0.194231
1050,0.037936,-0.440422,0.085387
1051,-0.07871,-0.426261,-0.035336
1052,-0.113121,-0.414243,-0.103601
1053,-0.253356,-0.447349,-0.079629
1054,-0.132672,-0.432207,0.103911
1055,-0.030769,-0.449815,0.167868
1056,0.135162,-0.157251,0.318428
1057,0.183495,-0.044521,0.380498
1058,0.150122,-0.112309,0.352221
1059,-0.217297,0.031416,0.312601
1060,-0.334674,0.27237,0.307622
1061,-0.354258,0.443419,0.069101
1062,-0.422262,0.607662,0.033735
1063,-0.454756,0.675115,0.11527
1064,-0.230811,0.686541,-0.095289
1065,0.224516,0.644279,-0.2757
1066,0.591249,0.271255,-0.238425
1067,0.616318,0.053607,-0.485315
1068,0.43695,0.107898,-0.31012
1069,0.379413,0.288372,-0.13011
1070,0.369725,0.577205,0.241297
1071,0.184904,0.732041,0.485639
1072,0.116938,0.222949,0.020494
1073,0.006717,-0.084389,-0.142225
1074,-0.239619,-0.439863,-0.120843
1075,-0.287316,-0.546092,-0.080896
1076,-0.260027,-0.586036,-0.0763
1077,0.055903,-0.617978,0.01814
1078,0.154895,-0.613143,0.122307
1079,0.166646,-0.62775,0.182902
1080,0.143868,-0.682328,0.395541
1081,0.08352,-0.630562,0.385864
1082,0.037557,-0.483818,0.232685
1083,0.040823,-0.1435,0.035568
1084,0.086618,0.119616,0.03035
1085,0.057183,0.122939,0.121797
1086,0.185758,0.699604,0.328957
1087,-0.130502,0.829301,0.307261
1088,0.151182,0.131491,0.024159
1089,-0.034029,0.475951,0.347801
1090,0.030561,0.989731,0.563469
1091,0.083344,0.990454,0.46058
1092,0.082961,0.566705,0.032147
1093,0.542473,-0.118596,-0.569605
1094,0.528135,-0.028436,-0.611126
1095,0.35913,0.112559,-0.12794
1096,0.099162,-0.043302,0.08821
1097,-0.048836,-0.072449,0.017552
1098,-0.206308,-0.02864,-0.222996
1099,-0.026675,-0.006358,-0.143553
1100,0.079048,0.000869,-0.113324
1101,0.22124,-0.001384,-0.027294
1102,0.369509,-0.125425,0.074938
1103,0.393012,-0.197247,0.132588
1104,0.381257,-0.373751,0.218222
1105,0.220449,-0.45599,0.153567
1106,0.113411,-0.501927,0.132989
1107,-0.118235,-0.423283,-0.007444
1108,-0.198035,-0.493891,-0.087116
1109,-0.168454,-0.434449,-0.036163
1110,-0.095074,-0.411615,0.071884
1111,0.022025,-0.27116,0.27336
1112,0.030491,-0.08784,0.348778
1113,0.159151,-0.039047,0.329198
1114,-0.027039,0.020448,0.254959
1115,-0.187989,0.128258,0.270991
1116,-0.20212,0.259023,0.327003
1117,-0.290206,0.243396,0.177804
1118,-0.417535,0.50973,0.163708
1119,-0.368601,0.669437,0.175066
1120,-0.418722,0.808179,-0.05964
1121,0.009907,0.72217,-0.246497
1122,0.442507,0.355647,-0.334564
1123,0.464023,0.037348,-0.51446
1124,0.254446,-0.03234,-0.293419
1125,0.212816,0.15135,-0.059832
1126,0.284256,0.369848,0.242856
1127,0.208224,0.519747,0.443732
1128,0.232092,0.239978,0.110184
1129,0.0647,-0.190744,-0.127355
1130,-0.149238,-0.371086,-0.153679
1131,-0.26187,-0.450054,-0.141006
1132,-0.194225,-0.468487,-0.029958
1133,0.036451,-0.454476,0.079453
1134,0.13994,-0.535714,0.134574
1135,0.180246,-0.62681,0.236662
1136,0.199549,-0.643252,0.281502
1137,0.142333,-0.642262,0.440588
1138,0.076598,-0.525548,0.366595
1139,0.005342,-0.324937,0.209705
1140,-0.034826,-0.244257,0.116331
1141,-0.040583,-0.037328,0.033238
1142,0.012445,0.072358,0.082
1143,-0.092848,0.859072,0.43445
1144,-0.253866,0.528647,0.42581
1145,0.173768,0.302608,0.093081
1146,-0.029037,0.581766,0.497172
1147,0.143563,1.016353,0.53496
1148,0.086114,0.892272,0.18661
1149,0.383679,0.158445,-0.533823
1150,0.65031,0.082927,-0.780813
1151,0.452644,0.170153,-0.428104
1152,0.223669,0.212523,-0.086993
1153,-0.277166,-0.081616,-0.118219
1154,-0.274489,-0.08015,-0.127227
1155,0.042319,-0.010154,-0.171868
1156,0.269773,0.023663,-0.012258
1157,0.273198,0.022981,0.011369
1158,0.449746,-0.089586,0.1486
1159,0.476509,-0.244769,0.172345
1160,0.438539,-0.413292,0.147237
1161,0.175536,-0.522606,0.120749
1162,-0.026638,-0.515839,0.05688
1163,-0.123656,-0.495041,-0.054944
1164,-0.189475,-0.45059,-0.103195
1165,-0.203131,-0.311996,0.120931
1166,-0.154011,-0.344165,0.204386
1167,-0.11302,-0.247434,0.267089
1168,0.114361,0.000178,0.327358
1169,0.095917,0.026195,0.297475
1170,0.021628,0.07748,0.298096
1171,-0.224359,0.280705,0.444355
1172,-0.22196,0.289015,0.420619
1173,-0.34201,0.332661,-0.044646
1174,-0.218235,0.709688,0.227105
1175,-0.160276,0.724019,-0.203847
1176,0.159312,0.531494,-0.388319
1177,0.370948,0.366993,-0.345119
1178,0.406994,-0.046161,-0.323804
1179,0.14988,0.01893,-0.340773
1180,0.197031,0.149934,-0.195328
1181,0.246538,0.324745,-0.053942
1182,0.101752,0.707377,0.48883
1183,0.134446,0.625751,0.299462
1184,0.185573,0.366677,0.04296
1185,-0.145583,-0.394821,-0.174576
1186,-0.314397,-0.508281,-0.138459
1187,-0.301525,-0.542659,-0.083712
1188,-0.052164,-0.551861,0.081252
1189,0.078924,-0.551284,0.159004
1190,0.141539,-0.614283,0.244955
1191,0.17048,-0.711276,0.374464
1192,0.136153,-0.764944,0.400577
1193,0.10072,-0.699713,0.270432
1194,0.060978,-0.398514,0.118145
1195,0.04944,0.086125,0.01495
1196,0.023778,0.091334,0.123878
1197,0.075477,0.215653,0.187169
1198,-0.227212,1.020199,0.34346
1199,-0.209428,0.426481,0.255468
1200,0.1251,0.036082,-0.08997
1201,0.005334,0.466059,0.481923
1202,0.010145,0.832153,0.65821
1203,-0.087878,1.025115,0.50492
1204,0.536768,-0.00511,-0.573096
1205,0.73555,-0.174168,-0.829582
1206,0.585767,0.233026,-0.598713
1207,0.092886,0.11483,0.232534
1208,-0.114763,-0.046316,0.236711
1209,-0.26111,-0.103824,0.103737
1210,-0.239266,-0.123717,-0.304145
1211,0.083835,-0.086393,-0.307097
1212,0.124811,-0.026842,-0.237991
1213,0.352794,-0.056993,0.065062
1214,0.404988,-0.133204,0.163819
1215,0.443102,-0.201025,0.255662
1216,0.284807,-0.362784,0.292835
1217,0.089156,-0.452604,0.168064
1218,-0.069675,-0.394641,0.027454
1219,-0.230702,-0.344455,-0.035738
1220,-0.298221,-0.315324,-0.017946
1221,-0.30215,-0.320702,0.064275
1222,-0.071172,-0.509321,0.009483
1223,0.025108,-0.48633,0.056839
1224,0.132659,-0.012246,0.312405
1225,0.107502,-0.076515,0.360266
1226,-0.139536,0.053067,0.425396
1227,-0.229783,0.232736,0.416326
1228,-0.264781,0.325386,0.344923
1229,-0.246441,0.319908,0.194757
1230,-0.472145,0.602281,0.270674
1231,-0.459879,0.622443,0.093445
1232,-0.397546,0.667057,-0.093139
1233,0.10556,0.450334,-0.410165
1234,0.40674,0.085464,-0.334282
1235,0.392904,-0.118827,-0.429656
1236,0.283874,0.011293,-0.21948
1237,0.345846,0.294043,0.024805
1238,0.372967,0.596699,0.349488
1239,0.221187,0.667175,0.511302
1240,0.206993,0.447286,0.187086
1241,0.168407,0.178221,-0.058357
1242,-0.133669,-0.370827,-0.208944
1243,-0.279903,-0.488551,-0.12657
1244,-0.302969,-0.504203,-0.054459
1245,-0.013594,-0.43039,0.163646
1246,0.133553,-0.504997,0.159081
1247,0.185443,-0.524201,0.149989
1248,0.181823,-0.677914,0.324581
1249,0.051069,-0.661438,0.40852
1250,-0.001651,-0.672119,0.39966
1251,0.021455,-0.332988,0.200688
1252,-0.043427,0.01025,0.09901
1253,-0.020209,0.126386,0.043277
1254,0.119666,0.177856,0.08494
1255,-0.127655,0.769733,0.401458
1256,-0.050214,0.557275,0.277969
1257,0.064345,0.421506,0.188799
1258,-0.050757,0.894353,0.408315
1259,0.054804,0.967161,0.460578
1260,0.099428,0.847141,0.328702
1261,0.530898,-0.066386,-0.676561
1262,0.431651,0.04744,-0.514996
1263,0.235968,0.059192,-0.063863
1264,-0.169232,-0.035997,0.084607
1265,-0.322795,-0.06494,-0.182772
1266,-0.15924,-0.022141,-0.281305
1267,0.200981,-0.022461,-0.15559
1268,0.258347,0.013845,-0.100857
1269,0.41136,-0.058747,0.102658
1270,0.475116,-0.229598,0.221393
1271,0.514991,-0.342742,0.246857
1272,0.351221,-0.509122,0.185874
1273,0.108937,-0.498821,0.120215
1274,-0.074785,-0.382209,0.023363
1275,-0.190535,-0.34701,-0.059314
1276,-0.224758,-0.285408,-0.031116
1277,-0.184509,-0.310911,0.070886
1278,-0.066869,-0.303933,0.203595
1279,0.048196,-0.079639,0.318558
1280,0.092694,-0.052439,0.28506
1281,-0.054317,-0.014079,0.271384
1282,-0.273409,0.089546,0.339011
1283,-0.297053,0.234453,0.349995
1284,-0.270454,0.228344,0.378689
1285,-0.429034,0.338768,0.091553
1286,-0.507698,0.487065,0.171779
1287,-0.302762,0.615358,0.014917
1288,0.016405,0.616861,-0.181594
1289,0.226082,0.517269,-0.207505
1290,0.56528,0.050053,-0.350317
1291,0.387462,-0.060008,-0.435222
1292,0.264823,0.070374,-0.232253
1293,0.26052,0.386099,0.021595
1294,0.18164,0.624794,0.364008
1295,0.10979,0.631667,0.476423
1296,0.14107,0.329457,0.07053
1297,-0.032588,-0.176269,-0.154423
1298,-0.20655,-0.403776,-0.109763
1299,-0.293933,-0.500228,-0.077327
1300,-0.180961,-0.492971,0.010074
1301,0.003043,-0.439152,0.090718
1302,0.092227,-0.506395,0.106922
1303,0.161847,-0.555662,0.16899
1304,0.162182,-0.694353,0.304802
1305,0.074372,-0.605729,0.32364
1306,0.039418,-0.587953,0.289777
1307,0.053067,-0.329682,0.196823
1308,-0.014026,0.038258,0.119726
1309,0.041079,0.184657,0.17684
1310,0.130371,0.561603,0.272592
1311,-0.189251,0.743587,0.331969
1312,0.008115,0.292831,0.13007
1313,0.116536,0.224882,0.140418
1314,-0.016753,0.599548,0.497967
1315,-0.109584,1.016916,0.747352
1316,-0.171082,1.057613,0.553468
1317,0.228443,0.08127,-0.329687
1318,0.557268,0.005538,-0.61927
1319,0.497314,0.147634,-0.462867
1320,0.227951,-0.122377,0.148951
1321,-0.030127,-0.231757,0.022756
1322,-0.191816,-0.168103,-0.172546
1323,-0.243985,-0.087911,-0.321532
1324,0.032776,-0.056585,-0.148174
1325,0.12952,0.050069,-0.013207
1326,0.278074,0.046426,0.118809
1327,0.387144,-0.09726,0.263478
1328,0.453617,-0.286213,0.286399
1329,0.433537,-0.353423,0.287023
1330,0.055773,-0.418265,0.098009
1331,0.0652,-0.416506,0.098663
1332,-0.13275,-0.375869,-0.016089
1333,-0.191152,-0.394124,0.036987
1334,-0.188607,-0.392974,0.046239
1335,-0.037805,-0.396529,0.250326
1336,0.110092,-0.064834,0.353251
1337,0.085049,-0.068143,0.363527
1338,0.053661,-0.012043,0.218429
1339,-0.247864,0.079177,0.241543
1340,-0.364888,0.196757,0.346063
1341,-0.354638,0.23968,0.394786
1342,-0.40141,0.289777,0.10359
1343,-0.398311,0.626856,0.216791
1344,-0.370451,0.74322,0.072656
1345,-0.119168,0.709277,-0.264757
1346,0.303637,0.502849,-0.325374
1347,0.561319,0.132323,-0.296974
1348,0.428892,0.048916,-0.420126
1349,0.304581,0.067473,-0.25637
1350,0.322851,0.264209,-0.026411
1351,0.289789,0.487602,0.317576
1352,0.132917,0.548409,0.503174
1353,0.034289,0.140909,0.021041
1354,-0.062372,-0.112674,-0.135218
1355,-0.264667,-0.437353,-0.123324
1356,-0.309259,-0.484836,-0.061394
1357,-0.108933,-0.49288,0.05788
1358,-0.009833,-0.501717,0.103929
1359,0.179065,-0.558261,0.162032
1360,0.19006,-0.744259,0.251925
1361,0.188267,-0.788182,0.275718
1362,0.068974,-0.749013,0.262769
1363,-0.027771,-0.401684,0.208085
1364,-0.092981,-0.185546,0.197848
1365,-0.112378,0.194612,0.244576
1366,0.153182,0.360922,0.224632
1367,0.218185,0.589623,0.224582
1368,-0.121768,0.542365,0.318171
1369,0.17381,0.059344,0.103329
1370,-0.143379,0.420708,0.457375
1371,-0.063071,0.990166,0.643754
1372,-0.059562,0.996384,0.487389
1373,0.178526,0.306856,-0.28915
1374,0.651119,0.1608,-0.877698
1375,0.376627,0.210936,-0.15043
1376,0.2757,0.058411,0.08125
1377,0.084783,-0.064935,0.227499
1378,-0.158076,-0.114385,-0.356957
1379,-0.005614,-0.122114,-0.355715
1380,0.142066,-0.088936,-0.293856
1381,0.277313,0.022055,0.059578
1382,0.358399,-0.008789,0.143366
1383,0.390925,-0.05625,0.2204
1384,0.423428,-0.433349,0.215753
1385,0.306181,-0.467733,0.215074
1386,0.19033,-0.52846,0.201406
1387,-0.069728,-0.40028,0.070431
1388,-0.154048,-0.392622,-0.031046
1389,-0.193802,-0.388455,-0.031589
1390,-0.114495,-0.359223,0.142315
1391,-0.080525,-0.25262,0.234108
1392,-0.035552,-0.105636,0.316627
1393,0.016052,-0.029355,0.262047
1394,-0.088821,0.025495,0.250761
1395,-0.18129,0.131486,0.401506
1396,-0.222633,0.188402,0.433587
1397,-0.235402,0.260864,0.405662
1398,-0.393718,0.487091,0.107125
1399,-0.313333,0.78706,0.213954
1400,-0.302629,0.707842,0.00799
1401,0.186362,0.594211,-0.319645
1402,0.514279,0.271066,-0.315844
1403,0.551659,0.125727,-0.301973
1404,0.266856,-0.1788,-0.210829
1405,0.273477,0.041591,-0.046078
1406,0.335219,0.205599,0.036443
1407,0.269569,0.509647,0.393071
1408,0.1158,0.435593,0.409071
1409,0.085759,0.219112,0.031509
1410,-0.183923,-0.125922,-0.15156
1411,-0.338513,-0.331424,-0.107873
1412,-0.352208,-0.424401,-0.068654
1413,-0.138846,-0.421538,0.045195
1414,0.025598,-0.456768,0.125531
1415,0.134655,-0.591622,0.170208
1416,0.16191,-0.717379,0.269149
1417,0.120516,-0.732972,0.358124
1418,0.072682,-0.708776,0.385057
1419,0.012058,-0.455292,0.248619
1420,-0.031161,-0.256179,0.108705
1421,-0.004729,0.023723,0.080723
1422,0.061218,0.147493,0.184994
1423,0.211105,0.520336,0.256004
1424,-0.067619,0.794547,0.421654
1425,-0.081114,0.173217,0.318834
1426,0.085586,0.344336,0.369306
1427,0.057239,0.488826,0.493539
1428,0.114168,0.766744,0.561919
1429,-0.157176,1.145002,0.399681
1430,-0.017957,0.699542,-0.029194
1431,0.485575,-0.059739,-0.912359
1432,0.419294,0.191763,-0.439172
1433,0.221843,-0.020336,0.112554
1434,-0.076051,-0.075266,0.203404
1435,-0.209517,0.058349,-0.136577
1436,-0.167634,0.077727,-0.22247
1437,0.186071,-0.028477,-0.131727
1438,0.237974,0.031076,0.054278
1439,0.317189,-0.020733,0.111528
1440,0.463135,-0.29516,0.164907
1441,0.428766,-0.439892,0.183856
1442,0.245728,-0.533264,0.149201
1443,0.066316,-0.517679,0.124439
1444,-0.033105,-0.484791,0.022478
1445,-0.082044,-0.440346,-0.036094
1446,-0.117409,-0.3172,0.035027
1447,-0.108065,-0.343028,0.19765
1448,-0.084276,-0.274154,0.273059
1449,0.058826,-0.024405,0.316042
1450,0.019124,-0.080853,0.224525
1451,-0.08543,-0.00942,0.21641
1452,-0.313345,0.121171,0.283688
1453,-0.360379,0.246039,0.372931
1454,-0.305418,0.241443,0.369285
1455,-0.357973,0.505588,0.172658
1456,-0.31966,0.723744,0.163646
1457,-0.196868,0.639234,-0.129135
1458,0.180279,0.597638,-0.191662
1459,0.538104,0.279465,-0.25609
1460,0.523951,0.028843,-0.417306
1461,0.321003,0.002104,-0.262352
1462,0.329348,0.19729,-0.033146
1463,0.364782,0.340111,0.10563
1464,0.198068,0.70057,0.530694
1465,0.155962,0.280313,0.056473
1466,0.039174,-0.004869,-0.09977
1467,-0.086115,-0.204357,-0.148561
1468,-0.293428,-0.415213,-0.129029
1469,-0.289212,-0.455175,-0.081513
1470,-0.041548,-0.484422,0.128519
1471,0.138103,-0.544791,0.198432
1472,0.161297,-0.594667,0.234513
1473,0.178832,-0.615918,0.279113
1474,0.073165,-0.631024,0.428851
1475,0.04134,-0.549802,0.408637
1476,0.028879,-0.437811,0.369178
1477,-0.140695,-0.007569,0.099977
1478,-0.074253,0.071921,0.040389
1479,-0.000826,0.168861,0.073256
1480,-0.008164,0.478619,0.339668
1481,-0.086285,0.351249,0.37699
1482,0.210729,0.295594,0.16227
1483,0.066648,0.49302,0.468522
1484,0.24351,0.796903,0.556711
1485,0.147462,1.005529,0.353
1486,0.234033,0.478972,-0.069893
1487,0.570661,-0.219212,-0.618814
1488,0.298524,0.037314,-0.471916
1489,0.149514,-0.004008,-0.062475
1490,0.021468,-0.067436,0.03539
1491,-0.2965,-0.071539,-0.201319
1492,-0.000787,0.041169,-0.087921
1493,0.001867,0.040933,-0.078564
1494,0.314952,0.027787,0.055668
1495,0.31828,0.006896,0.121099
1496,0.420663,-0.090241,0.239868
1497,0.411287,-0.310086,0.222912
1498,0.276144,-0.417273,0.131249
1499,0.047039,-0.47618,0.094109
1500,-0.08639,-0.452801,0.035202
1501,-0.124191,-0.449917,-0.00882
1502,-0.187261,-0.458215,-0.029167
1503,-0.133336,-0.38658,0.09854
1504,-0.037903,-0.30315,0.191428
1505,0.101534,-0.113691,0.329
1506,0.161897,0.011902,0.326368
1507,0.11342,0.001001,0.352619
1508,0.034467,0.042134,0.404426
1509,-0.180256,0.130936,0.484787
1510,-0.311062,0.254203,0.168662
1511,-0.431924,0.374699,-0.00533
1512,-0.498896,0.511029,0.107175
1513,-0.36244,0.799825,-0.120971
1514,-0.350692,0.80367,-0.108538
1515,0.295291,0.509725,-0.226756
1516,0.50527,0.127131,-0.270099
1517,0.274408,-0.097377,-0.317859
1518,0.220839,-0.00497,-0.131957
1519,0.318076,0.259995,0.102364
1520,0.196211,0.533359,0.380951
1521,0.099241,0.626015,0.431853
1522,0.168505,0.335415,0.014121
1523,-0.001299,-0.138531,-0.187011
1524,-0.203078,-0.316865,-0.1309
1525,-0.280091,-0.41132,-0.058859
1526,-0.10622,-0.452387,0.09892
1527,0.098551,-0.44442,0.179539
1528,0.182719,-0.522834,0.194645
1529,0.214553,-0.647214,0.284482
1530,0.214011,-0.695426,0.394694
1531,0.103402,-0.649645,0.438062
1532,-0.017967,-0.5016,0.354865
1533,-0.069978,-0.320428,0.18717
1534,-0.093495,-0.195672,-0.001077
1535,-0.046996,-0.025994,0.00781
1536,0.065766,0.449462,0.362907
1537,-0.098221,0.791877,0.519152
1538,-0.056785,0.24902,0.275622
1539,0.191,0.428527,0.236832
1540,-0.070477,0.54016,0.64847
1541,0.126283,0.850992,0.650313
1542,0.06914,0.707853,0.323188
1543,0.332315,0.186618,-0.384205
1544,0.447979,0.043552,-0.709141
1545,0.356995,0.201957,-0.364818
1546,0.107562,0.089571,0.110391
1547,-0.185989,-0.071178,0.067927
1548,-0.303062,-0.127042,-0.252177
1549,-0.077418,-0.101711,-0.215616
1550,0.089227,-0.07553,-0.122227
1551,0.219249,0.008205,0.059214
1552,0.37032,-0.061961,0.162205
1553,0.408258,-0.2108,0.231574
1554,0.402068,-0.370019,0.23345
1555,0.202609,-0.436853,0.228403
1556,0.014123,-0.469913,0.176729
1557,-0.116372,-0.435255,0.064284
1558,-0.167817,-0.455061,-0.06021
1559,-0.143668,-0.413323,-0.027692
1560,-0.154946,-0.345707,0.066494
1561,-0.014371,0.001687,0.393054
1562,-0.039139,-0.00162,0.392259
1563,0.054405,-0.073945,0.370587
1564,-0.13897,0.035935,0.294313
1565,-0.220659,0.051047,0.33579
1566,-0.329277,0.208381,0.383167
1567,-0.41122,0.339238,0.111432
1568,-0.406597,0.342497,0.129766
1569,-0.372973,0.675495,0.216533
1570,-0.152204,0.688344,-0.286462
1571,-0.135675,0.692703,-0.272943
1572,0.42066,0.343156,-0.207451
1573,0.413953,0.01722,-0.327772
1574,0.339206,-0.031457,-0.289738
1575,0.346181,0.081206,-0.102397
1576,0.386297,0.36657,0.168726
1577,0.233629,0.588404,0.476319
1578,0.146937,0.553069,0.431967
1579,0.123742,0.13499,-0.036226
1580,-0.153669,-0.334942,-0.213812
1581,-0.345208,-0.469178,-0.121387
1582,-0.275735,-0.451856,0.030959
1583,-0.159303,-0.421875,0.104145
1584,0.08316,-0.450867,0.205252
1585,0.166227,-0.552616,0.244715
1586,0.161983,-0.645612,0.286592
1587,0.101441,-0.765612,0.411216
1588,-0.004212,-0.657917,0.374717
1589,-0.027917,-0.548587,0.332422
1590,-0.053807,-0.03111,0.158789
1591,-0.022173,0.161067,0.112406
1592,0.072739,0.207609,0.14275
1593,0.023616,0.813332,0.341006
1594,-0.168972,0.363253,0.312135
1595,-0.060263,0.143631,0.185902
1596,-0.122236,0.562655,0.592374
1597,0.035697,0.993806,0.677321
1598,0.037577,1.09457,0.623825
1599,0.278188,0.187391,-0.172637
1600,0.660264,-0.101266,-0.674606
1601,0.601157,0.118332,-0.626434
1602,0.282345,0.101508,0.037352
1603,0.133847,-0.014655,0.183795
1604,-0.225171,-0.088877,0.008367
1605,-0.249087,-0.054386,-0.29038
1606,0.080037,-0.058705,-0.126327
1607,0.163625,-0.043998,-0.038245
1608,0.330409,0.000848,0.132867
1609,0.455282,-0.245476,0.240499
1610,0.447091,-0.246125,0.262037
1611,0.322054,-0.468299,0.276696
1612,0.064421,-0.534409,0.195254
1613,0.003724,-0.507306,0.154153
1614,-0.1626,-0.446928,-0.036497
1615,-0.198849,-0.355138,0.001629
1616,-0.183638,-0.321329,0.120534
1617,-0.132933,-0.233665,0.255457
1618,0.075579,-0.000846,0.378434
1619,0.090571,-0.0109,0.386129
1620,-0.012495,-0.036819,0.372638
1621,-0.288327,0.11038,0.424809
1622,-0.356619,0.18545,0.435382
1623,-0.336386,0.224088,0.374159
1624,-0.449425,0.596946,0.158234
1625,-0.367671,0.71911,0.19562
1626,-0.175355,0.666442,-0.222337
1627,0.214506,0.584223,-0.243644
1628,0.456736,0.362797,-0.187118
1629,0.504586,0.103498,-0.356393
1630,0.337113,0.052665,-0.201873
1631,0.305635,0.111825,-0.110927
1632,0.243962,0.460163,0.37061
1633,0.100973,0.660251,0.542181
1634,0.10487,0.637112,0.397323
1635,-0.082694,-0.32811,-0.234468
1636,-0.168155,-0.433068,-0.219496
1637,-0.252292,-0.482255,-0.17679
1638,-0.183588,-0.531294,-0.016835
1639,-0.076664,-0.504739,0.077424
1640,0.085578,-0.414984,0.226683
1641,0.19605,-0.443149,0.34811
1642,0.173629,-0.537668,0.420253
1643,0.112491,-0.590585,0.411775
1644,-0.051428,-0.570637,0.169705
1645,-0.093647,-0.482292,0.080912
1646,-0.187416,-0.202278,0.005674
1647,-0.018157,-0.049257,0.177775
1648,0.247489,0.259173,0.418787
1649,0.328548,0.487468,0.484467
1650,0.173741,0.645699,0.248881
1651,0.164632,0.301765,0.128039
1652,-0.109715,0.510384,0.360687
1653,-0.214586,0.809596,0.73078
1654,-0.069182,0.62566,0.485143
1655,0.101931,0.383336,0.154531
1656,0.41158,0.033948,-0.60695
1657,0.288728,0.138866,-0.363878
1658,0.29805,0.087837,-0.136769
1659,-0.106872,-0.085833,0.028175
1660,-0.263,-0.147467,-0.266991
1661,-0.240184,-0.128257,-0.312285
1662,0.108503,-0.035279,-0.03756
1663,0.28808,0.002285,0.134839
1664,0.351265,-0.022401,0.211604
1665,0.378292,-0.079891,0.268489
1666,0.241241,-0.377021,0.260908
1667,0.129701,-0.406995,0.244509
1668,0.039878,-0.399154,0.219715
1669,-0.150736,-0.340173,0.053174
1670,-0.144491,-0.338164,0.065742
1671,-0.178629,-0.276309,0.165915
1672,-0.060764,-0.413974,0.21637
1673,-0.005962,-0.37728,0.233531
1674,0.190066,-0.193519,0.401478
1675,0.084907,-0.004501,0.315816
1676,-0.057356,0.018704,0.263663
1677,-0.307944,0.181332,0.360757
1678,-0.294906,0.37764,0.423357
1679,-0.249944,0.409045,0.321038
1680,-0.265464,0.607256,0.259176
1681,-0.290657,0.693433,0.320869
1682,-0.233078,0.734122,0.019967
1683,0.228664,0.512336,-0.28357
1684,0.359291,0.355669,-0.284823
1685,0.46194,-0.049988,-0.354433
1686,0.202951,0.04979,-0.062745
1687,0.279348,0.161508,0.047226
1688,0.347879,0.304613,0.180983
1689,0.221314,0.579791,0.581062
1690,0.166346,0.422136,0.34973
1691,0.135669,0.203831,0.112659
1692,-0.246485,-0.335974,-0.107275
1693,-0.397807,-0.444139,-0.056103
1694,-0.411551,-0.483202,-0.03151
1695,-0.075915,-0.479946,0.140592
1696,-0.0136,-0.51649,0.153809
1697,0.029708,-0.578813,0.16384
1698,0.077308,-0.704286,0.321524
1699,0.017928,-0.649469,0.448886
1700,0.018853,-0.584713,0.451416
1701,0.068642,-0.19887,0.273015
1702,0.112481,0.075844,0.159332
1703,0.143616,0.207849,0.173881
1704,0.124229,0.633741,0.287518
1705,-0.060188,0.650876,0.296754
1706,-0.014531,0.25015,0.178012
1707,-0.227174,0.609641,0.452102
1708,-0.329846,1.104248,0.657502
1709,-0.155787,1.089459,0.542642
1710,0.297372,0.138916,-0.176534
1711,0.549648,0.108103,-0.523768
1712,0.502787,0.080474,-0.313024
1713,0.311589,0.025861,0.090867
1714,-0.184748,-0.102928,-0.001099
1715,-0.250518,-0.064626,-0.199759
1716,-0.052591,-0.008859,-0.154486
1717,0.024081,0.039145,-0.008944
1718,0.158726,0.029224,0.125741
1719,0.325148,-0.158004,0.185368
1720,0.38417,-0.368807,0.230338
1721,0.360665,-0.419044,0.283963
1722,0.075577,-0.45726,0.274347
1723,-0.06138,-0.417573,0.18427
1724,-0.13921,-0.400129,0.061447
1725,-0.174696,-0.369391,0.022853
1726,-0.157611,-0.345248,0.052756
1727,-0.052029,-0.349642,0.097172
1728,0.112848,-0.125874,0.350691
1729,0.072373,0.056984,0.418864
1730,-0.138325,0.03445,0.344645
1731,-0.292267,0.179841,0.355116
1732,-0.321209,0.339283,0.339532
1733,-0.283505,0.360876,0.265934
1734,-0.113981,0.678662,0.212644
1735,-0.209984,0.724754,0.070904
1736,-0.18065,0.663109,-0.049942
1737,0.225364,0.474343,-0.297997
1738,0.471535,0.108267,-0.396687
1739,0.532798,0.016676,-0.405489
1740,0.51129,0.082507,0.015144
1741,0.523587,0.224328,0.315275
1742,0.563063,0.342974,0.477501
1743,0.43221,0.528155,0.586976
1744,0.21671,0.24647,0.175123
1745,-0.024394,-0.029885,-0.070852
1746,-0.493511,-0.347415,-0.164186
1747,-0.581347,-0.538976,-0.15621
1748,-0.591586,-0.540932,-0.151326
1749,-0.18398,-0.604417,0.184158
1750,-0.130242,-0.605172,0.274226
1751,-0.087813,-0.602476,0.347012
1752,0.033648,-0.559467,0.524711
1753,0.041022,-0.446148,0.489262
1754,0.023926,-0.402678,0.404854
1755,-0.05643,-0.117168,0.11619
1756,-0.000178,0.093612,0.122312
1757,0.015172,0.258518,0.19844
1758,0.094871,0.683494,0.356124
1759,0.060963,0.245783,0.319412
1760,0.090331,0.210255,0.287896
1761,0.080469,0.496865,0.438164
1762,0.207805,0.775204,0.41832
1763,0.217097,0.778568,0.385693
1764,0.264935,0.145452,-0.239784
1765,0.485127,-0.108899,-0.558705
1766,0.443143,-0.082695,-0.383501
1767,-0.019729,0.105108,0.171689
1768,-0.177623,0.121157,-0.082225
1769,-0.156683,0.090922,-0.129564
1770,-0.056193,-0.045169,-0.088763
1771,0.012535,-0.118821,-0.010267
1772,0.017718,-0.118934,0.006692
1773,0.280981,-0.367333,0.08152
1774,0.272828,-0.399707,0.123848
1775,0.222463,-0.396832,0.162108
1776,0.020348,-0.240257,0.133253
1777,0.002501,-0.198245,0.113939
1778,-0.022198,-0.146701,0.095629
1779,-0.083621,-0.058804,0.10473
1780,-0.027225,-0.239949,0.20518
1781,0.015394,-0.279407,0.253756
1782,0.062375,-0.255624,0.437345
1783,-0.085096,-0.162695,0.364941
1784,-0.184369,-0.030958,0.325822
1785,-0.278813,0.185637,0.2226
1786,-0.241159,0.492066,0.026424
1787,-0.187296,0.607031,0.039482
1788,-0.187523,0.664836,-0.077877
1789,-0.075668,0.518895,-0.138102
1790,0.041274,0.35904,-0.203779
1791,0.276277,-0.050621,-0.002047
1792,0.364469,-0.136582,0.074018
1793,0.450712,-0.026994,0.234596
1794,0.437751,0.210493,0.420998
1795,0.236864,0.247181,0.477902
1796,0.167582,0.242539,0.382186
1797,-0.093997,0.094193,-0.05792
1798,-0.207774,-0.079381,-0.171235
1799,-0.265862,-0.167588,-0.13391
1800,-0.196502,-0.378227,0.096635
1801,-0.070483,-0.408192,0.223417
1802,-0.015751,-0.4082,0.247312
1803,0.083206,-0.461144,0.302216
1804,0.112381,-0.4677,0.335484
1805,0.088142,-0.456418,0.337167
1806,-0.063179,-0.367414,0.31569
1807,-0.134682,-0.212012,0.271223
1808,-0.139559,-0.113819,0.231274
1809,0.037878,0.034593,0.157849
1810,0.114424,0.217611,0.227951
1811,-0.022762,0.337749,0.379591
1812,-0.210602,0.292372,0.464091
1813,-0.178028,0.155752,0.420639
1814,-0.181804,0.232877,0.407102
1815,0.044077,0.62252,0.349254
1816,0.094585,0.78284,0.164224
1817,0.14434,0.595822,-0.008024
1818,0.488269,0.103241,-0.296388
1819,0.415235,-0.113306,-0.067114
1820,0.339482,-0.207584,0.022008
1821,-0.003573,-0.072799,0.046065
1822,-0.107208,-0.044339,0.016402
1823,-0.099073,-0.010462,0.065981
1824,-0.016053,-0.060062,0.021029
1825,0.090859,-0.142401,0.031872
1826,0.120692,-0.192458,0.069877
1827,0.150025,-0.312452,0.167568
1828,0.062186,-0.299547,0.238824
1829,-0.028254,-0.243251,0.25854
1830,-0.103976,-0.197446,0.171526
1831,-0.111621,-0.190848,0.152309
1832,-0.160251,-0.223608,0.129244
1833,-0.218728,-0.290445,0.20235
1834,-0.203667,-0.334994,0.255401
1835,-0.084072,-0.302088,0.330494
1836,-0.005738,-0.183295,0.417587
1837,-0.084952,0.063101,0.422875
1838,-0.098133,0.063599,0.433842
1839,-0.216797,0.183699,0.33053
1840,-0.219448,0.335446,0.169275
1841,-0.237004,0.506016,0.134212
1842,-0.110425,0.665354,0.113834
1843,-0.029498,0.494906,-0.133354
1844,0.046395,0.455668,-0.171765
1845,0.224148,0.220269,-0.174996
1846,0.347682,-0.068346,-0.115987
1847,0.37169,-0.066111,-0.120592
1848,0.468586,0.233758,0.255653
1849,0.409784,0.359231,0.378873
1850,0.335474,0.361056,0.396607
1851,-0.0293,0.141876,0.108207
1852,-0.31555,-0.123762,-0.116755
1853,-0.402751,-0.21152,-0.160267
1854,-0.460279,-0.473023,-0.04036
1855,-0.333186,-0.522396,0.020062
1856,-0.23797,-0.504348,0.086084
1857,-0.003306,-0.446819,0.285461
1858,0.10057,-0.441587,0.433178
1859,0.12286,-0.463582,0.502142
1860,0.111175,-0.368168,0.419668
1861,0.035089,-0.259218,0.226903
1862,-0.017109,-0.132488,0.092408
1863,-0.038196,-0.063342,0.083415
1864,-0.059728,0.21189,0.247809
1865,-0.138799,0.454529,0.442057
1866,-0.113356,0.237754,0.37714
1867,-0.081263,0.217969,0.355541
1868,-0.081695,0.325152,0.37299
1869,0.054674,0.693292,0.361091
1870,0.256185,0.70399,0.0234
1871,0.299735,0.386353,-0.129194
1872,0.714453,-0.188666,-0.346654
1873,0.485382,-0.112816,0.030685
1874,0.215448,-0.035015,0.2749
1875,-0.127917,0.104344,0.112995
1876,-0.16867,0.104759,-0.016371
1877,-0.166583,0.103797,0.009807
1878,-0.142239,0.057914,-0.00557
1879,0.072442,-0.198391,0.053719
1880,0.101824,-0.26104,0.12062
1881,0.088587,-0.326934,0.194781
1882,0.013573,-0.411193,0.190685
1883,-0.001197,-0.403217,0.181457
1884,-0.060188,-0.300921,0.154608
1885,-0.110902,-0.255079,0.17756
1886,-0.139007,-0.290211,0.194579
1887,-0.168083,-0.266938,0.237809
1888,-0.130454,-0.219698,0.225788
1889,-0.036303,-0.142414,0.291296
1890,-0.03243,-0.021841,0.328438
1891,-0.168934,0.0584,0.315232
1892,-0.22948,0.103024,0.335837
1893,-0.27008,0.254383,0.29485
1894,-0.217593,0.426841,0.248237
1895,-0.154975,0.58134,0.329302
1896,-0.140299,0.598604,-0.007114
1897,-0.055441,0.525853,-0.169764
1898,0.0149,0.452383,-0.163752
1899,0.312192,-0.140061,-0.130431
1900,0.364119,-0.1645,-0.041181
1901,0.425731,-0.076506,0.072951
1902,0.429728,0.180525,0.344
1903,0.343659,0.297125,0.479232
1904,0.22784,0.333579,0.48609
1905,-0.199736,0.195969,0.209476
1906,-0.288157,-0.018972,-0.079582
1907,-0.329436,-0.10752,-0.17274
1908,-0.399756,-0.345492,-0.167576
1909,-0.225735,-0.45439,0.006276
1910,-0.093628,-0.411761,0.185021
1911,0.040241,-0.401867,0.270303
1912,0.129305,-0.427226,0.345899
1913,0.163521,-0.420671,0.404194
1914,0.113856,-0.419288,0.409548
1915,-0.028185,-0.332925,0.3934
1916,-0.149096,-0.171703,0.312194
1917,-0.178746,-0.193819,0.080811
1918,-0.015732,-0.097134,0.007467
1919,0.084721,-0.005236,0.080592
1920,0.036089,0.371857,0.428987
1921,-0.097498,0.361836,0.53589
1922,0.05832,0.243075,0.416241
1923,0.06638,0.233905,0.422652
1924,0.242993,0.58144,0.345328
1925,0.21716,0.81581,0.335016
1926,0.12853,0.673419,0.160745
1927,0.502622,-0.078812,-0.392261
1928,0.479666,-0.100744,-0.340746
1929,0.199922,-0.133696,0.007834
1930,-0.19891,-0.056426,0.016951
1931,-0.373391,-0.038465,-0.066212
1932,-0.341256,-0.042532,-0.073692
1933,-0.027865,0.020284,0.003424
1934,0.037451,0.051307,0.03745
1935,0.20519,0.014701,0.1361
1936,0.310196,-0.205655,0.240809
1937,0.289695,-0.26848,0.274403
1938,0.06917,-0.375324,0.2606
1939,-0.016636,-0.369712,0.201836
1940,-0.064636,-0.346743,0.148665
1941,-0.078609,-0.331655,0.107101
1942,-0.101271,-0.273448,0.18419
1943,-0.107039,-0.193353,0.235419
1944,0.050721,-0.109229,0.325946
1945,0.055841,-0.025816,0.339186
1946,0.023114,-0.016854,0.340037
1947,-0.131833,0.03399,0.328947
1948,-0.180651,0.052294,0.380589
1949,-0.203613,0.08939,0.478544
1950,-0.222714,0.138715,0.482102
1951,-0.235418,0.240467,0.327513
1952,-0.238444,0.41947,0.396942
1953,-0.232725,0.574087,0.034083
1954,-0.026294,0.550159,-0.204445
1955,0.107873,0.493048,-0.212138
1956,0.298539,0.134367,-0.280358
1957,0.256952,-0.027511,-0.157184
1958,0.274586,-0.02578,-0.157889
1959,0.349428,0.308197,0.146773
1960,0.39244,0.513202,0.411057
1961,0.385467,0.536671,0.491969
1962,0.207315,0.249771,0.234082
1963,-0.032903,-0.088993,-0.065577
1964,-0.238859,-0.224036,-0.106176
1965,-0.373557,-0.298572,-0.091197
1966,-0.290972,-0.401674,-0.003615
1967,-0.214832,-0.430899,0.062105
1968,-0.067879,-0.400623,0.218803
1969,-0.009252,-0.395515,0.326593
1970,-0.020075,-0.499958,0.441552
1971,-0.0535,-0.467341,0.482493
1972,-0.12963,-0.349946,0.445165
1973,-0.230595,-0.1976,0.293375
1974,-0.196367,-0.122358,0.092231
1975,0.095481,-0.024793,0.161029
1976,0.140648,0.072171,0.269157
1977,-0.050187,0.339351,0.516792
1978,-0.066123,0.163345,0.405789
1979,-0.12721,0.180138,0.405609
1980,0.0357,0.602628,0.367684
1981,0.097503,0.749845,0.371671
1982,0.127636,0.706238,0.263169
1983,0.321632,0.089396,-0.391057
1984,0.410368,0.0024,-0.446356
1985,0.220668,-0.061791,-0.05423
1986,-0.037366,-0.114525,0.034998
1987,-0.212545,-0.075614,-0.030035
1988,-0.267929,0.018292,-0.143636
1989,-0.003404,0.001191,-0.038823
1990,0.070155,0.063079,0.043088
1991,0.21669,0.044184,0.154571
1992,0.274938,-0.082609,0.244328
1993,0.265586,-0.255399,0.286782
1994,0.13458,-0.399721,0.251755
1995,-0.048675,-0.425801,0.12017
1996,-0.086751,-0.389993,0.083606
1997,-0.144802,-0.350548,0.064414
1998,-0.311925,-0.197672,0.120831
1999,-0.319434,-0.1706,0.222303
2000,-0.299685,-0.155363,0.248717
2001,-0.049807,-0.128116,0.214106
2002,0.037064,-0.162292,0.292732
2003,-0.028645,-0.152312,0.296539
2004,-0.255769,0.03554,0.332622
2005,-0.290354,0.035858,0.386859
2006,-0.294133,0.037088,0.396267
2007,-0.274157,0.19053,0.255167
2008,-0.219216,0.430058,0.286062
2009,-0.225633,0.463269,0.285044
2010,-0.168808,0.61816,-0.014686
2011,0.017846,0.541696,-0.138005
2012,0.025977,0.543911,-0.128861
2013,0.31766,0.161756,-0.3369
2014,0.422721,-0.059785,-0.05101
2015,0.414697,-0.023048,0.067937
2016,0.402692,0.08027,0.331481
2017,0.402447,0.217935,0.47764
2018,0.248904,0.277856,0.46209
2019,-0.042374,0.139426,0.168929
2020,-0.378762,-0.071386,-0.106685
2021,-0.450042,-0.091514,-0.134747
2022,-0.486924,-0.180207,-0.111572
2023,-0.239265,-0.332402,0.130445
2024,-0.178381,-0.334791,0.191161
2025,-0.013834,-0.397574,0.313287
2026,0.016843,-0.422238,0.344322
2027,0.018749,-0.452759,0.40573
2028,-0.152106,-0.361091,0.37426
2029,-0.192732,-0.261046,0.339286
2030,-0.248797,-0.207985,0.311
2031,-0.260125,-0.087079,0.147179
2032,-0.153292,0.006664,0.083737
2033,-0.047805,0.121492,0.198557
2034,-0.156213,0.273099,0.348216
2035,-0.154535,0.273119,0.344362
2036,-0.21031,0.09819,0.354492
2037,-0.079319,0.26458,0.433958
2038,0.059583,0.66095,0.410237
2039,0.072978,0.830046,0.452498
2040,0.19923,0.428638,0.181401
2041,0.188743,0.243071,0.027381
2042,0.528846,-0.145424,-0.289518
2043,0.359853,-0.172498,-0.075603
2044,0.136456,-0.171896,0.173924
2045,-0.124069,-0.036723,0.032955
2046,-0.165532,0.022858,-0.131155
2047,-0.015986,0.005059,0.011534
2048,-0.016691,0.004756,0.02545
2049,0.015041,0.130526,0.112161
2050,0.06793,0.095655,0.173739
2051,0.097222,0.021009,0.218009
2052,0.094578,-0.279694,0.229512
2053,-0.072251,-0.412972,0.12905
2054,-0.107157,-0.400453,0.096972
2055,-0.173354,-0.324839,0.06503
2056,-0.264169,-0.192537,0.142233
2057,-0.274037,-0.157541,0.188421
2058,-0.282503,-0.09818,0.301641
2059,-0.201269,-0.098405,0.358046
2060,-0.148074,-0.130776,0.334622
2061,-0.076501,-0.247508,0.305893
2062,-0.168863,-0.176851,0.357932
2063,-0.235797,-0.092302,0.363898
2064,-0.304038,0.005677,0.381596
2065,-0.313575,0.118918,0.294665
2066,-0.31904,0.219285,0.229077
2067,-0.132677,0.594822,0.267722
2068,-0.067028,0.487732,-0.057193
2069,-0.023305,0.548708,-0.151809
2070,0.149073,0.407613,-0.142154
2071,0.232974,0.169695,-0.20516
2072,0.26209,0.036651,-0.195591
2073,0.184937,0.109905,0.080689
2074,0.182723,0.17123,0.159374
2075,0.177186,0.247661,0.287631
2076,0.058537,0.187565,0.299916
2077,0.026421,0.117543,0.168163
2078,-0.044674,0.031675,0.048825
2079,-0.23529,-0.211517,-0.063618
2080,-0.280674,-0.334424,-0.028148
2081,-0.182489,-0.446895,0.06952
2082,-0.124163,-0.397073,0.207263
2083,-0.062094,-0.315586,0.269166
2084,-0.014604,-0.36752,0.297855
2085,0.007389,-0.408415,0.312192
2086,-0.02207,-0.424922,0.289945
2087,-0.109547,-0.414654,0.263354
2088,-0.201444,-0.284993,0.297395
2089,-0.201888,-0.140531,0.257445
2090,-0.098026,-0.105142,0.170348
2091,0.067754,0.006655,0.26731
2092,0.009703,0.30783,0.410507
2093,-0.190405,0.383088,0.410925
2094,-0.120256,0.249026,0.230655
2095,-0.038383,0.482303,0.370879
2096,0.015478,0.677173,0.407317
2097,0.114548,0.97067,0.411886
2098,0.175514,0.37486,0.053908
2099,0.312848,-0.016014,-0.143099
2100,0.433113,-0.21753,-0.247989
2101,0.15439,-0.311564,0.05172
2102,-0.07476,-0.258748,0.103642
2103,-0.393201,-0.013144,0.0338
2104,-0.150097,0.050424,-0.050221
2105,-0.066305,0.034068,-0.027177
2106,0.029535,0.094531,0.019144
2107,0.168565,-0.052136,0.141743
2108,0.190526,-0.136056,0.18345
2109,0.0887,-0.247156,0.217422
2110,-0.113092,-0.4046,0.174048
2111,-0.117975,-0.394145,0.17162
2112,-0.14719,-0.304739,0.176845
2113,-0.193193,-0.233554,0.184883
2114,-0.19065,-0.213882,0.211668
2115,-0.187246,-0.159043,0.328775
2116,-0.167369,-0.139473,0.340671
2117,-0.030131,-0.11268,0.319681
2118,-0.003742,-0.171536,0.311708
2119,-0.149218,-0.069561,0.333832
2120,-0.24994,-0.006322,0.357851
2121,-0.419981,0.117716,0.371296
2122,-0.394701,0.20466,0.251517
2123,-0.400042,0.282243,0.21485
2124,-0.169454,0.527267,0.277514
2125,-0.182115,0.493522,0.026081
2126,-0.168643,0.492818,-0.069691
2127,0.001706,0.348969,-0.121424
2128,0.170255,0.103009,-0.227618
2129,0.229952,0.00796,-0.191988
2130,0.309068,0.068962,0.140606
2131,0.361995,0.174138,0.245921
2132,0.297396,0.26616,0.354284
2133,0.11971,0.230223,0.400732
2134,-0.014729,0.099512,0.223699
2135,-0.1036,-0.013083,0.013473
2136,-0.202742,-0.145949,-0.082725
2137,-0.252717,-0.263197,-0.039583
2138,-0.146667,-0.368688,0.070876
2139,-0.045794,-0.392533,0.196281
2140,0.008345,-0.353025,0.287333
2141,0.029288,-0.399317,0.35671
2142,0.010299,-0.414556,0.413892
2143,-0.042153,-0.394381,0.417222
2144,-0.121328,-0.327934,0.38745
2145,-0.233562,-0.253606,0.313276
2146,-0.187857,-0.188235,0.044903
2147,-0.122889,-0.177086,0.039895
2148,0.006053,-0.048983,0.169757
2149,0.030231,0.29651,0.363154
2150,-0.025267,0.318653,0.44162
2151,0.036149,0.177948,0.472357
2152,0.1117,0.311772,0.549063
2153,0.090312,0.407624,0.530812
2154,0.037763,0.712681,0.528847
2155,0.069964,0.725437,0.36023
2156,0.37937,-0.054689,-0.229715
2157,0.477233,-0.051176,-0.53906
2158,0.4009,-0.020838,-0.356145
2159,0.090909,-0.002893,0.133501
2160,-0.328355,-0.077317,0.005916
2161,-0.370078,-0.061292,-0.194559
2162,-0.127718,-0.037143,-0.056209
2163,0.128011,0.038724,0.114081
2164,0.180038,0.039663,0.172746
2165,0.263891,0.010891,0.235954
2166,0.34146,-0.232434,0.279619
2167,0.256382,-0.354466,0.272755
2168,0.153168,-0.372538,0.271317
2169,0.032762,-0.413147,0.241166
2170,-0.035502,-0.338963,0.164209
2171,-0.045659,-0.300031,0.130929
2172,-0.124905,-0.228833,0.232586
2173,-0.132811,-0.276323,0.324322
2174,-0.111139,-0.323285,0.308799
2175,0.001549,-0.112939,0.387187
2176,-0.055563,0.032751,0.390591
2177,-0.127018,0.074247,0.368293
2178,-0.31352,0.199576,0.444459
2179,-0.325817,0.26116,0.491438
2180,-0.313214,0.315927,0.391884
2181,-0.282992,0.689394,0.349363
2182,-0.318761,0.59702,0.063372
2183,-0.170142,0.565223,-0.195071
2184,0.088309,0.388106,-0.294297
2185,0.261213,0.083682,-0.211682
2186,0.258263,-0.115839,-0.22104
2187,0.226956,0.197445,0.083452
2188,0.25262,0.333759,0.212545
2189,0.259777,0.562226,0.451759
2190,0.232903,0.587475,0.490228
2191,0.078787,0.082404,0.04643
2192,-0.020686,-0.111248,-0.042378
2193,-0.24365,-0.318719,-0.083509
2194,-0.339392,-0.557812,0.012656
2195,-0.255459,-0.62703,0.08906
2196,-0.092276,-0.61653,0.191916
2197,0.026295,-0.595759,0.324645
2198,0.051608,-0.617189,0.365093
2199,0.038494,-0.622754,0.457996
2200,0.03209,-0.459722,0.400683
2201,-0.037441,-0.220483,0.297383
2202,-0.065475,0.029996,0.246864
2203,-0.022686,0.082665,0.245626
2204,0.151802,0.261417,0.215087
2205,0.008541,0.547548,0.438396
2206,-0.088781,0.270028,0.550005
2207,-0.02347,0.037795,0.43361
2208,0.079445,0.390684,0.504461
2209,0.042911,0.608777,0.505145
2210,0.130478,0.938786,0.506975
2211,0.238231,0.47103,-0.016551
2212,0.436969,-0.04884,-0.534712
2213,0.43983,-0.048621,-0.644873
2214,0.336785,0.083971,0.108629
2215,-0.025559,0.051033,0.352011
2216,-0.161631,0.029132,0.253386
2217,-0.323956,0.015339,-0.135927
2218,-0.181665,-0.058605,-0.106018
2219,-0.06538,-0.171647,-0.005556
2220,0.228516,-0.313178,0.071236
2221,0.32528,-0.425337,0.196851
2222,0.319439,-0.426545,0.221824
2223,0.159662,-0.404947,0.395204
2224,0.03151,-0.268161,0.322999
2225,0.032511,-0.267599,0.33535
2226,-0.119942,-0.178797,0.100635
2227,-0.140541,-0.185985,0.111048
2228,-0.149128,-0.204314,0.146621
2229,-0.059519,-0.384047,0.255328
2230,0.036471,-0.404216,0.33124
2231,0.070006,-0.216847,0.386094
2232,-0.012975,-0.110985,0.43927
2233,-0.282298,0.164113,0.439697
2234,-0.344967,0.22815,0.387064
2235,-0.479243,0.743579,0.17054
2236,-0.432579,0.894019,0.219519
2237,-0.486035,0.812498,0.135687
2238,-0.299933,0.817006,0.08435
2239,0.124353,0.369595,-0.310178
2240,0.312704,0.154609,-0.341096
2241,0.374046,-0.036772,-0.230906
2242,0.305636,-0.035138,0.142225
2243,0.323147,0.01548,0.243316
2244,0.233639,0.462741,0.552309
2245,0.148836,0.540829,0.481764
2246,-0.001824,0.307277,0.16263
2247,-0.149884,-0.016528,-0.01839
2248,-0.232395,-0.071742,-0.035986
2249,-0.339089,-0.186283,-0.004495
2250,-0.173646,-0.41978,0.095328
2251,-0.09396,-0.480351,0.142921
2252,0.055494,-0.585032,0.276446
2253,0.076717,-0.713158,0.36389
2254,0.05546,-0.755734,0.453624
2255,0.022207,-0.65374,0.471923
2256,-0.016744,-0.420667,0.421678
2257,-0.026555,-0.057747,0.309919
2258,-0.023856,0.150109,0.252031
2259,0.080068,0.262891,0.210049
2260,0.122546,0.397364,0.327718
2261,-0.080438,0.3271,0.375656
2262,0.059787,0.121972,0.247026
2263,-0.05227,0.376596,0.40085
2264,-0.099,0.649106,0.505426
2265,0.105605,1.007879,0.521663
2266,0.306643,0.319767,0.070286
2267,0.490333,-0.131529,-0.167533
2268,0.454433,-0.008162,-0.365899
2269,0.163064,-0.128376,0.254407
2270,0.080348,-0.141096,0.297609
2271,-0.364067,0.003899,-0.051091
2272,-0.368196,0.072134,-0.128157
2273,-0.366864,0.072217,-0.125915
2274,0.060049,0.013864,-0.044445
2275,0.274273,-0.022536,0.079004
2276,0.342198,-0.087223,0.170265
2277,0.432589,-0.26163,0.321242
2278,0.383267,-0.350271,0.442563
2279,0.280554,-0.368549,0.444101
2280,0.015448,-0.443552,0.202962
2281,-0.174379,-0.385486,0.03286
2282,-0.170956,-0.383651,0.046384
2283,-0.285496,-0.266367,0.167278
2284,-0.067579,-0.441657,0.199319
2285,0.015216,-0.359527,0.259397
2286,0.117369,-0.119172,0.39366
2287,-0.129737,0.004219,0.391635
2288,-0.293124,0.037757,0.398369
2289,-0.492335,0.328562,0.224651
2290,-0.478269,0.405668,0.148437
2291,-0.459636,0.515541,0.280915
2292,-0.47218,0.589312,0.256658
2293,-0.429695,0.606621,0.193091
2294,-0.185636,0.741557,-0.016348
2295,0.421078,0.092792,-0.311813
2296,0.497871,0.035255,-0.288788
2297,0.486921,0.020092,-0.087958
2298,0.406715,0.183655,0.121695
2299,0.382051,0.362677,0.439946
2300,0.32098,0.606113,0.618745
2301,0.227335,0.62453,0.403521
2302,-0.057448,0.086755,-0.004091
2303,-0.252936,-0.270339,-0.141036
2304,-0.373506,-0.340329,-0.045469
2305,-0.32589,-0.443146,0.037331
2306,-0.259838,-0.471659,0.087096
2307,0.042294,-0.458351,0.212791
2308,0.151025,-0.475404,0.306782
2309,0.218323,-0.554283,0.40226
2310,0.210622,-0.577204,0.47472
2311,0.130233,-0.473452,0.487771
2312,-0.004421,-0.292115,0.479853
2313,-0.159252,-0.128353,0.362757
2314,-0.038534,-0.13686,0.213899
2315,0.092974,-0.131391,0.166046
2316,0.250091,-0.020295,0.221608
2317,0.0606,0.561173,0.60612
2318,0.182077,0.476688,0.460205
2319,0.236885,0.400047,0.325703
2320,0.070447,1.315899,0.5737
2321,0.060671,1.312387,0.55351
2322,0.147486,0.72475,0.212552
2323,0.399129,-0.384552,-0.434584
2324,0.364564,-0.212489,-0.534853
2325,0.048057,0.003436,0.052165
2326,-0.147331,-0.063234,0.167808
2327,-0.294693,-0.064719,0.094568
2328,-0.279889,-0.086635,-0.140781
2329,-0.070256,0.046809,-0.071245
2330,0.056703,0.06362,-0.044539
2331,0.255505,-0.020643,0.046917
2332,0.365636,-0.177537,0.294434
2333,0.37269,-0.275105,0.358207
2334,0.10809,-0.439506,0.28697
2335,0.011153,-0.461161,0.257102
2336,-0.06205,-0.421059,0.227319
2337,-0.221135,-0.294042,0.068039
2338,-0.250496,-0.237726,0.068317
2339,-0.274657,-0.190786,0.120134
2340,-0.174439,-0.333966,0.273374
2341,-0.023141,-0.179711,0.445487
2342,0.024019,-0.08236,0.49863
2343,0.042923,-0.120199,0.437878
2344,-0.075896,-0.102024,0.461998
2345,-0.313558,0.029347,0.521284
2346,-0.404282,0.239248,0.343159
2347,-0.443051,0.478043,0.257423
2348,-0.366687,0.734209,0.225741
2349,-0.318157,0.634426,0.051307
2350,-0.141028,0.727046,-0.116447
2351,0.117014,0.516848,-0.171788
2352,0.425043,0.184651,-0.36692
2353,0.445793,0.033592,-0.251862
2354,0.418608,0.072835,-0.156033
2355,0.390883,0.320706,0.325144
2356,0.328855,0.513613,0.596875
2357,0.263314,0.572369,0.522469
2358,0.10379,0.136447,0.07121
2359,-0.171879,-0.304151,-0.10809
2360,-0.398709,-0.336244,-0.090738
2361,-0.443766,-0.399181,-0.044858
2362,-0.229664,-0.503921,0.081308
2363,-0.013591,-0.461383,0.22458
2364,0.104404,-0.480079,0.32025
2365,0.179093,-0.591522,0.492568
2366,0.161207,-0.601599,0.528788
2367,0.093049,-0.488203,0.523144
2368,-0.047649,-0.205841,0.270304
2369,-0.097647,-0.132142,0.187264
2370,-0.114821,-0.056811,0.195133
2371,0.052118,0.145008,0.293255
2372,0.107663,0.27301,0.324734
2373,-0.051739,0.558923,0.554195
2374,0.206658,0.268941,0.239631
2375,0.130434,0.365991,0.32638
2376,0.080256,0.817722,0.565011
2377,0.008474,0.946567,0.577208
2378,0.232265,0.137358,-0.007006
2379,0.385583,-0.220474,-0.246573
2380,0.385159,0.083057,-0.356846
2381,0.298267,0.108946,-0.140443
2382,-0.07943,-0.149682,0.20929
2383,-0.278155,-0.18607,-0.078361
2384,-0.308169,-0.163856,-0.180503
2385,-0.126303,-0.034642,-0.092867
2386,0.116974,0.008585,-0.01649
2387,0.197398,0.030541,0.054204
2388,0.346739,-0.07538,0.282386
2389,0.396244,-0.283762,0.31157
2390,0.358676,-0.350262,0.309902
2391,0.05515,-0.481996,0.24759
2392,-0.060468,-0.384113,0.198969
2393,-0.111517,-0.353991,0.135928
2394,-0.170889,-0.230725,0.114921
2395,-0.152277,-0.205653,0.222798
2396,-0.10141,-0.279874,0.295015
2397,-0.018978,-0.136261,0.42555
2398,0.05649,-0.022732,0.45451
2399,0.009377,-0.033081,0.393227
2400,-0.159246,0.045804,0.373525
2401,-0.24453,0.165327,0.417658
2402,-0.223378,0.190332,0.468312
2403,-0.330884,0.23467,0.424703
2404,-0.399293,0.408073,0.345563
2405,-0.373351,0.531755,0.475459
2406,-0.326393,0.593857,0.006338
2407,-0.152579,0.653699,-0.231502
2408,-0.011503,0.434634,-0.259079
2409,0.145017,0.122048,-0.304087
2410,0.13395,0.010655,-0.136517
2411,0.181426,0.1134,-0.03677
2412,0.273146,0.344317,0.236462
2413,0.294549,0.454895,0.515664
2414,0.280841,0.349176,0.448919
2415,0.148266,0.068492,0.119947
2416,-0.150136,-0.305387,-0.094122
2417,-0.236457,-0.351118,-0.07159
2418,-0.270492,-0.38979,0.032104
2419,-0.048566,-0.329557,0.200682
2420,0.035056,-0.280399,0.241187
2421,0.156238,-0.228324,0.26961
2422,0.208372,-0.409787,0.346381
2423,0.194224,-0.44442,0.395395
2424,0.076497,-0.506792,0.4391
2425,0.039199,-0.462389,0.397593
2426,-0.024389,-0.115093,0.385785
2427,-0.114724,0.084902,0.412383
2428,-0.098687,0.140833,0.339274
2429,0.212482,0.171348,0.196805
2430,-0.104412,0.2612,0.351825
2431,-0.188573,0.118987,0.431497
2432,-0.195336,0.044549,0.452412
2433,-0.116591,0.287946,0.582911
2434,0.046652,0.621619,0.466283
2435,0.121172,0.854523,0.385232
2436,0.347853,0.666479,0.046206
2437,0.756614,0.138189,-0.302146
2438,0.867107,-0.004222,-0.361073
2439,0.374559,0.16068,0.01592
2440,0.091512,-0.013111,0.250216
2441,-0.070748,-0.159009,0.143551
2442,-0.201575,-0.281703,-0.178288
2443,-0.018841,-0.175003,-0.085009
2444,0.011549,-0.02824,-0.038342
2445,0.354723,0.034607,0.146659
2446,0.441008,-0.052506,0.234411
2447,0.449159,-0.176611,0.29758
2448,0.26883,-0.267155,0.300225
2449,0.05427,-0.365998,0.250022
2450,-0.075856,-0.298379,0.188909
2451,-0.205735,-0.233885,0.082104
2452,-0.256242,-0.228359,0.150025
2453,-0.188617,-0.280571,0.260192
2454,-0.090956,-0.376269,0.27562
2455,0.106355,-0.137144,0.437929
2456,0.164221,-0.057746,0.466376
2457,0.181167,-0.065556,0.464986
2458,-0.090212,0.045872,0.469955
2459,-0.15996,0.080435,0.482142
2460,-0.200829,0.162192,0.489047
2461,-0.258845,0.237626,0.455244
2462,-0.328739,0.378642,0.324357
2463,-0.361607,0.570928,0.43825
2464,-0.27763,0.621245,0.025324
2465,-0.150972,0.657347,-0.027646
2466,0.070797,0.499573,-0.092217
2467,0.364368,0.02398,-0.427436
2468,0.32423,-0.045382,-0.428911
2469,0.229604,0.347488,0.220412
2470,0.294388,0.44869,0.420789
2471,0.334578,0.507619,0.559355
2472,0.373751,0.416831,0.455169
2473,0.377057,0.221505,0.211976
2474,0.045473,-0.194397,-0.033284
2475,-0.336708,-0.27332,-0.000722
2476,-0.397044,-0.293059,0.060148
2477,-0.344159,-0.326354,0.121473
2478,-0.111433,-0.295484,0.244463
2479,0.005816,-0.342836,0.25008
2480,0.0434,-0.458858,0.291199
2481,0.123383,-0.583094,0.507157
2482,0.121512,-0.57752,0.569586
2483,0.113065,-0.511301,0.594304
2484,-0.045278,-0.311492,0.408728
2485,-0.049072,-0.241586,0.307334
2486,0.026853,-0.06455,0.131658
2487,0.122693,0.200641,0.235816
2488,0.139602,0.379585,0.356546
2489,-0.088888,0.38185,0.43655
2490,0.178986,0.366688,0.227077
2491,0.043071,0.608108,0.373796
2492,0.096922,1.1165,0.652619
2493,0.271917,0.880098,0.435643
2494,0.244958,0.76166,0.275404
2495,0.631127,-0.205004,-0.338451
2496,0.45415,0.004684,-0.272828
2497,0.155803,0.00296,0.104254
2498,-0.214509,-0.218478,0.203694
2499,-0.462716,-0.299288,-0.085746
2500,-0.322274,-0.267529,-0.198208
2501,-0.209414,-0.168502,-0.123992
2502,0.167359,0.131567,-0.029591
2503,0.39069,0.086862,0.179739
2504,0.514385,-0.063523,0.375027
2505,0.47508,-0.30972,0.431826
2506,0.347211,-0.35606,0.393646
2507,0.190304,-0.414016,0.333516
2508,-0.097198,-0.333141,0.131407
2509,-0.300106,-0.335011,-0.050115
2510,-0.278688,-0.30593,-0.004284
2511,-0.201943,-0.289143,0.214045
2512,-0.06535,-0.264244,0.385189
2513,-0.028679,-0.073541,0.447752
2514,0.052147,-0.00854,0.45729
2515,-0.103034,0.030004,0.465216
2516,-0.203868,0.074506,0.505021
2517,-0.311734,0.22124,0.508726
2518,-0.294414,0.214655,0.339841
2519,-0.323983,0.304026,0.285319
2520,-0.361639,0.607411,0.448218
2521,-0.38731,0.621662,0.042766
2522,-0.145896,0.712201,-0.126526
2523,0.084174,0.582802,-0.17593
2524,0.334727,0.075088,-0.272475
2525,0.330021,0.038234,-0.266603
2526,0.286014,0.108913,-0.114604
2527,0.329368,0.380019,0.402756
2528,0.333772,0.478662,0.538554
2529,0.313356,0.546558,0.620808
2530,0.08042,-0.019992,0.061091
2531,-0.078164,-0.234952,-0.05645
2532,-0.385236,-0.355732,-0.079415
2533,-0.438708,-0.352999,-0.074677
2534,-0.196714,-0.458815,0.097048
2535,-0.061373,-0.42601,0.234796
2536,-0.018848,-0.441496,0.248874
2537,0.104492,-0.595426,0.37905
2538,0.05558,-0.657981,0.459715
2539,0.055279,-0.548869,0.481547
2540,0.011447,-0.325034,0.41401
2541,-0.106876,-0.00565,0.360938
2542,-0.191376,0.181704,0.278356
2543,0.034396,0.191227,0.251538
2544,0.144068,0.529995,0.429303
2545,0.035039,0.474986,0.451616
2546,0.037316,0.244851,0.418815
2547,0.171603,0.279675,0.479571
2548,-0.045339,0.726263,0.681106
2549,-0.086166,0.895818,0.710731
2550,0.002507,0.674092,0.376317
2551,0.269732,-0.073445,-0.054633
2552,0.450532,-0.30723,-0.262169
2553,0.379249,0.06725,-0.111928
2554,-0.007579,-0.104896,0.27095
2555,-0.006926,-0.104948,0.268205
2556,-0.261375,-0.160251,-0.177635
2557,-0.165729,-0.113607,-0.225159
2558,-0.079582,-0.078715,-0.139739
2559,0.201028,0.021401,0.031443
2560,0.285284,0.026197,0.212472
2561,0.312318,-0.047202,0.323567
2562,0.341115,-0.206876,0.352867
2563,0.241237,-0.346778,0.278901
2564,0.07674,-0.430547,0.255094
2565,-0.039777,-0.353517,0.205621
2566,-0.177268,-0.268706,0.114729
2567,-0.196906,-0.219315,0.155922
2568,-0.164442,-0.219132,0.303617
2569,0.002719,-0.255098,0.389511
2570,0.041886,-0.13089,0.469331
2571,0.061615,-0.048598,0.470076
2572,-0.120306,0.024257,0.424474
2573,-0.1973,0.064811,0.447393
2574,-0.283105,0.192949,0.540161
2575,-0.290957,0.243278,0.444856
2576,-0.405516,0.488159,0.194603
2577,-0.297441,0.750354,0.242985
2578,-0.212036,0.626085,0.159628
2579,-0.098692,0.699806,0.044003
2580,0.443737,0.338159,-0.129538
2581,0.420613,0.009074,-0.322365
2582,0.316167,-0.084599,-0.328122
2583,0.211992,0.10582,0.021377
2584,0.289466,0.392547,0.34212
2585,0.258349,0.498217,0.469678
2586,0.255803,0.521245,0.469393
2587,0.153994,0.097298,0.056957
2588,-0.040732,-0.078076,-0.060001
2589,-0.345769,-0.216034,0.001796
2590,-0.322509,-0.337015,0.056219
2591,-0.274616,-0.366837,0.104589
2592,-0.008804,-0.441653,0.252122
2593,0.069412,-0.521277,0.311755
2594,0.084488,-0.541901,0.342014
2595,0.047282,-0.584264,0.464376
2596,-0.023751,-0.471248,0.502493
2597,-0.041917,-0.394879,0.505226
2598,-0.140518,-0.08995,0.374318
2599,-0.156286,0.0018,0.306962
2600,0.014803,0.07229,0.242214
2601,0.248086,0.135709,0.24536
2602,0.155242,0.363218,0.530376
2603,0.102529,0.323421,0.465076
2604,0.130109,0.312588,0.383704
2605,-0.026701,1.087091,0.727219
2606,-0.045677,1.032078,0.747693
2607,0.101455,0.324178,0.265154
2608,0.236353,-0.071575,0.061689
2609,0.433163,-0.175417,-0.285678
2610,0.273412,0.095186,-0.15452
2611,-0.020842,-0.084256,0.102144
2612,-0.096619,-0.126251,0.108108
2613,-0.218048,-0.117138,-0.152592
2614,-0.180777,-0.112362,-0.110241
2615,-0.073246,-0.139828,0.030357
2616,0.12727,-0.001286,0.13038
2617,0.310088,0.017044,0.250407
2618,0.316688,-0.026982,0.332581
2619,0.328232,-0.14248,0.356741
2620,0.167678,-0.376603,0.227763
2621,0.073234,-0.454692,0.22081
2622,-0.153814,-0.355831,0.156747
2623,-0.217645,-0.322217,0.11662
2624,-0.299514,-0.24175,0.121049
2625,-0.211212,-0.225879,0.268457
2626,-0.168487,-0.249301,0.321477
2627,-0.039123,-0.173816,0.467586
2628,0.020153,-0.024208,0.447428
2629,-0.040356,-0.01244,0.385657
2630,-0.232832,0.011253,0.379537
2631,-0.348058,0.134648,0.493154
2632,-0.257793,0.103869,0.524469
2633,-0.277486,0.203348,0.376016
2634,-0.31537,0.566292,0.395389
2635,-0.285321,0.659892,0.332774
2636,-0.27237,0.678245,0.169279
2637,-0.065666,0.583144,-0.156639
2638,0.170424,0.298802,-0.30491
2639,0.188564,0.030584,-0.35667
2640,0.097435,0.004412,-0.122058
2641,0.144596,0.104063,0.10083
2642,0.207963,0.213291,0.320595
2643,0.234779,0.337023,0.404786
2644,0.203337,0.31393,0.314263
2645,0.003394,0.097936,0.072593
2646,-0.280847,-0.062314,-0.008002
2647,-0.361181,-0.179975,0.03171
2648,-0.307839,-0.228929,0.094564
2649,-0.087198,-0.311346,0.218512
2650,0.06374,-0.357954,0.262117
2651,0.103621,-0.462198,0.293109
2652,0.100732,-0.576276,0.345941
2653,-0.010645,-0.623733,0.43257
2654,-0.059158,-0.566849,0.461204
2655,-0.10383,-0.405026,0.45142
2656,-0.086566,-0.190744,0.372664
2657,-0.047815,-0.082482,0.310052
2658,0.060549,0.053387,0.290033
2659,0.118127,0.40884,0.352529
2660,0.056962,0.487038,0.384533
2661,-0.209997,0.314633,0.386688
2662,-0.175996,0.006114,0.323786
2663,-0.184584,0.004147,0.316802
2664,-0.109374,0.807567,0.803122
2665,-0.06186,1.040191,0.703677
2666,-0.035607,0.836609,0.369768
2667,0.60355,-0.344586,-0.376168
2668,0.540554,0.011411,-0.37876
2669,0.420779,0.097706,-0.156211
2670,0.064716,-0.201336,0.386574
2671,-0.165088,-0.16941,0.137993
2672,-0.185258,-0.153065,-0.063983
2673,-0.096128,-0.018228,-0.028925
2674,0.058388,0.083797,0.063192
2675,0.10978,0.131661,0.058695
2676,0.336433,-0.008763,0.170332
2677,0.326074,-0.12334,0.314154
2678,0.286157,-0.139028,0.368315
2679,0.080459,-0.262305,0.328945
2680,-0.004397,-0.346159,0.281464
2681,-0.119397,-0.308665,0.159893
2682,-0.196122,-0.290742,0.110027
2683,-0.207218,-0.250941,0.187508
2684,-0.179684,-0.362147,0.285196
2685,-0.078074,-0.453556,0.322312
2686,-0.014621,-0.161975,0.460638
2687,0.05441,-0.013606,0.464346
2688,-0.130275,0.121748,0.468664
2689,-0.201376,0.138899,0.506357
2690,-0.285358,0.269882,0.536964
2691,-0.315351,0.298687,0.362276
2692,-0.407518,0.621124,0.331762
2693,-0.406482,0.650552,0.254045
2694,-0.343092,0.694069,0.055181
2695,0.032522,0.543114,-0.028001
2696,0.194776,0.355185,-0.020722
2697,0.367208,0.018743,-0.151263
2698,0.254246,-0.041417,-0.047913
2699,0.28736,0.036042,0.038553
2700,0.296239,0.260123,0.298661
2701,0.230607,0.516605,0.595651
2702,0.226977,0.498403,0.491865
2703,0.152919,0.220352,0.136322
2704,-0.300355,-0.191882,-0.029962
2705,-0.371001,-0.217408,-0.014417
2706,-0.398536,-0.2735,0.038848
2707,-0.090557,-0.390037,0.18711
2708,-0.006629,-0.404536,0.219363
2709,0.108843,-0.471179,0.244341
2710,0.173869,-0.607218,0.37685
2711,0.164178,-0.623102,0.422014
2712,0.057386,-0.468353,0.487136
2713,-0.045914,-0.27121,0.49417
2714,-0.091924,-0.179988,0.483234
2715,-0.136224,-0.037924,0.305279
2716,0.069926,0.000985,0.130917
2717,0.175411,0.046576,0.142555
2718,0.140436,0.389271,0.552374
2719,0.030064,0.324332,0.501233
2720,0.150593,0.261015,0.404467
2721,-0.057389,0.656634,0.587288
2722,-0.131645,0.950243,0.692885
2723,-0.058422,0.828778,0.627294
2724,0.179753,0.289381,0.168745
2725,0.482559,-0.355224,-0.199395
2726,0.477714,-0.217272,-0.304555
2727,0.096105,0.055098,0.228508
2728,-0.045123,0.050325,0.249926
2729,-0.193613,0.020324,0.134991
2730,-0.251096,-0.1339,-0.186278
2731,-0.263171,0.009508,-0.017262
2732,-0.137505,0.040891,0.004661
2733,0.188689,-0.027166,0.124593
2734,0.300306,-0.074888,0.284361
2735,0.361999,-0.228107,0.381607
2736,0.305541,-0.356184,0.357834
2737,0.130816,-0.43564,0.299438
2738,-0.016467,-0.392473,0.245839
2739,-0.146119,-0.314238,0.151825
2740,-0.246952,-0.160916,0.190772
2741,-0.248844,-0.145437,0.253388
2742,-0.144345,-0.285928,0.288496
2743,0.109339,-0.280116,0.438817
2744,0.14651,-0.160093,0.506884
2745,0.142077,-0.070641,0.521876
2746,-0.225874,0.065981,0.462803
2747,-0.344821,0.114495,0.489585
2748,-0.434135,0.258744,0.495547
2749,-0.425774,0.466706,0.285618
2750,-0.392258,0.630481,0.385832
2751,-0.42454,0.746763,0.304801
2752,-0.167817,0.677384,-0.102445
2753,0.011501,0.568778,-0.18556
2754,0.34285,0.236994,-0.165292
2755,0.387457,-0.040647,-0.114159
2756,0.30732,0.013339,-0.009804
2757,0.365693,0.211326,0.187576
2758,0.368034,0.344556,0.319938
2759,0.249648,0.590061,0.593598
2760,0.129032,0.446182,0.239153
2761,0.040744,0.160949,-0.026919
2762,-0.309466,-0.282721,-0.07254
2763,-0.398638,-0.362691,0.019813
2764,-0.354367,-0.40985,0.078007
2765,-0.032472,-0.43081,0.244435
2766,0.100295,-0.472486,0.293254
2767,0.18629,-0.532653,0.342054
2768,0.188509,-0.630832,0.414613
2769,0.077344,-0.526886,0.480764
2770,0.038898,-0.414105,0.489011
2771,0.006633,-0.275419,0.497982
2772,-0.123402,0.066864,0.408983
2773,-0.042103,0.137058,0.236963
2774,0.079373,0.140979,0.17088
2775,0.237188,0.363663,0.364274
2776,0.021949,0.349532,0.423875
2777,0.066551,0.242603,0.373678
2778,0.029328,0.516872,0.604855
2779,-0.021739,1.049007,0.725475
2780,-0.127638,1.086596,0.709196
2781,0.118404,0.132136,0.044631
2782,0.486924,-0.767827,-0.329501
2783,0.545196,-0.449691,-0.354569
2784,0.377042,-0.041594,-0.029928
2785,0.130944,0.030086,0.183292
2786,-0.123748,0.019988,0.125188
2787,-0.160149,-0.015794,-0.080647
2788,-0.112972,-0.014001,-0.005861
2789,0.018585,0.034563,0.06508
2790,0.119977,0.04274,0.057581
2791,0.287816,-0.115851,0.267799
2792,0.278695,-0.146381,0.338691
2793,0.228828,-0.302939,0.312497
2794,0.039297,-0.392114,0.26332
2795,-0.00012,-0.367894,0.253562
2796,-0.065253,-0.315199,0.17781
2797,-0.104841,-0.24727,0.161368
2798,-0.100154,-0.2234,0.238794
2799,-0.051601,-0.229309,0.335932
2800,0.043612,-0.205975,0.424888
2801,0.076733,-0.077136,0.476816
2802,-0.005238,-0.057507,0.413536
2803,-0.074268,-0.040475,0.420559
2804,-0.196843,0.082117,0.478674
2805,-0.221339,0.126941,0.563054
2806,-0.293414,0.222646,0.268235
2807,-0.358206,0.405095,0.290797
2808,-0.275602,0.723738,0.355399
2809,-0.235306,0.733459,0.260826
2810,-0.10286,0.750993,0.136165
2811,0.219066,0.480753,-0.091177
2812,0.38998,-0.020327,-0.19534
2813,0.287031,-0.097794,-0.161289
2814,0.18194,-0.024656,-0.004572
2815,0.259006,0.238329,0.294451
2816,0.26156,0.326985,0.386004
2817,0.240906,0.452036,0.408393
2818,0.248517,0.389016,0.245772
2819,0.021956,0.202424,0.032341
2820,-0.295645,-0.018759,0.065493
2821,-0.354187,-0.2071,0.131363
2822,-0.312899,-0.300247,0.175218
2823,-0.036317,-0.467482,0.222025
2824,0.021922,-0.523966,0.229525
2825,0.104746,-0.598854,0.315048
2826,0.098461,-0.647684,0.455263
2827,0.078454,-0.608584,0.483665
2828,-0.010951,-0.396584,0.522593
2829,-0.070541,-0.196643,0.462852
2830,-0.120158,-0.054961,0.315792
2831,-0.101254,0.019984,0.172448
2832,0.037089,0.186639,0.279545
2833,0.142511,0.39316,0.475705
2834,-0.044855,0.52058,0.602377
2835,0.159737,0.233931,0.395707
2836,0.106238,0.431288,0.512494
2837,-0.028319,0.919722,0.702029
2838,0.014626,0.818454,0.670839
2839,0.120518,0.401212,0.337463
2840,0.212336,0.129344,0.156036
2841,0.467849,-0.077662,-0.211686
2842,0.435017,-0.009956,-0.005184
2843,0.182344,0.003518,0.181867
2844,-0.188556,0.047127,0.159983
2845,-0.291969,-0.097638,-0.157943
2846,-0.309737,-0.118115,-0.202454
2847,-0.076008,-0.113802,-0.000298
2848,0.2084,0.031235,0.130427
2849,0.278103,0.013939,0.225843
2850,0.327611,-0.0718,0.392878
2851,0.333256,-0.205822,0.356633
2852,0.271799,-0.27913,0.310283
2853,0.117985,-0.408956,0.254894
2854,-0.106426,-0.329758,0.198828
2855,-0.167045,-0.29668,0.168098
2856,-0.221428,-0.247815,0.194643
2857,-0.119131,-0.351747,0.300643
2858,-0.083805,-0.368999,0.327057
2859,0.027577,-0.200013,0.469917
2860,0.041277,0.085283,0.460847
2861,-0.029316,0.0907,0.416924
2862,-0.292367,0.144216,0.42903
2863,-0.324858,0.191496,0.489393
2864,-0.295036,0.200706,0.531904
2865,-0.349182,0.278923,0.37622
2866,-0.341992,0.620305,0.376424
2867,-0.367349,0.654703,0.286443
2868,-0.270152,0.742371,0.129824
2869,0.111316,0.529016,-0.102426
2870,0.249569,0.328675,-0.139103
2871,0.238406,-0.017753,-0.240196
2872,0.184132,-0.065421,-3.60E-05
2873,0.241557,0.050073,0.125842
2874,0.286878,0.27203,0.468868
2875,0.25479,0.309198,0.525429
2876,0.213623,0.236266,0.296601
2877,-0.065199,0.021199,0.038236
2878,-0.314903,-0.03443,0.001227
2879,-0.357353,-0.10737,0.071245
2880,-0.270984,-0.226091,0.183095
2881,-0.084568,-0.308953,0.257736
2882,0.030223,-0.4118,0.286404
2883,0.09375,-0.575203,0.345399
2884,0.065929,-0.596665,0.376749
2885,0.040776,-0.592545,0.420895
2886,-0.033592,-0.420975,0.529679
2887,-0.101057,-0.203119,0.551953
2888,-0.133999,-0.066416,0.512596
2889,-0.108377,-0.011328,0.259388
2890,0.08964,0.077668,0.206728
2891,0.125063,0.210917,0.271184
2892,-0.015478,0.270905,0.490701
2893,-0.093319,-0.063389,0.426942
2894,-0.020735,0.037547,0.374721
2895,-0.208241,0.633808,0.698789
2896,-0.003107,0.844814,0.614131
2897,-0.003812,0.870625,0.515608
2898,0.214854,0.229834,0.138528
2899,0.541899,-0.007093,-0.346488
2900,0.461242,0.118459,-0.226059
2901,0.224462,0.019002,0.136503
2902,-0.074816,-0.127073,0.248186
2903,-0.246362,-0.208567,-0.074766
2904,-0.29129,-0.197058,-0.241675
2905,-0.004472,-0.098758,0.083026
2906,0.069439,0.009874,0.117113
2907,0.261193,0.114716,0.152026
2908,0.370547,-0.048678,0.327622
2909,0.37255,-0.115068,0.364555
2910,0.315964,-0.287016,0.343444
2911,0.044827,-0.442728,0.291373
2912,-0.025642,-0.388807,0.282088
2913,-0.148626,-0.280896,0.184576
2914,-0.200208,-0.22976,0.139343
2915,-0.155711,-0.229775,0.235845
2916,-0.052566,-0.23552,0.416562
2917,-0.029314,-0.141885,0.491311
2918,0.031595,0.02448,0.482869
2919,-0.118065,-0.029405,0.399167
2920,-0.210694,-0.050735,0.392004
2921,-0.345092,0.03667,0.422419
2922,-0.319691,0.055584,0.57279
2923,-0.345873,0.14304,0.447778
2924,-0.398291,0.511122,0.32427
2925,-0.305153,0.720565,0.311993
2926,-0.289142,0.7272,0.238957
2927,-0.081346,0.759211,0.003032
2928,0.267763,0.396347,-0.149683
2929,0.377987,0.065168,-0.309603
2930,0.258501,-0.034246,-0.188296
2931,0.214305,0.059326,0.062764
2932,0.275594,0.197333,0.290126
2933,0.24696,0.319139,0.531212
2934,0.208899,0.333878,0.348282
2935,0.137179,0.193144,0.135974
2936,-0.035928,0.056421,0.000554
2937,-0.35112,-0.059424,-0.011932
2938,-0.355478,-0.189894,0.103487
2939,-0.302766,-0.250653,0.179344
2940,0.054912,-0.349164,0.298581
2941,0.148675,-0.452775,0.300001
2942,0.191085,-0.570792,0.343338
2943,0.182791,-0.622773,0.412311
2944,0.042581,-0.484244,0.525454
2945,0.003166,-0.386279,0.541964
2946,-0.068682,-0.174819,0.502176
2947,-0.071421,-0.138152,0.363301
2948,-0.004504,-0.088541,0.258884
2949,0.055894,0.037543,0.236816
2950,0.11151,0.357975,0.410908
2951,-0.104579,0.556954,0.518982
2952,-0.037873,0.178276,0.341423
2953,-0.110507,0.323042,0.556573
2954,-0.093622,0.462726,0.583405
2955,-0.032051,0.875398,0.799166
2956,-0.039165,0.627901,0.381154
2957,0.048363,0.355593,0.162667
2958,0.395257,-0.300185,-0.232177
2959,0.26766,0.056299,-0.050203
2960,0.167432,0.018437,0.117248
2961,-0.118066,-0.152735,0.159922
2962,-0.171437,-0.16398,-0.00131
2963,-0.219833,-0.132832,-0.182445
2964,-0.00047,-0.056587,0.078528
2965,0.199856,0.063668,0.119554
2966,0.259914,0.122044,0.141015
2967,0.328897,-0.010339,0.337055
2968,0.328125,-0.098138,0.397214
2969,0.314582,-0.223167,0.361695
2970,0.113342,-0.378313,0.247541
2971,0.04961,-0.36978,0.241528
2972,-0.082761,-0.304144,0.192166
2973,-0.193153,-0.252596,0.161493
2974,-0.174146,-0.290823,0.27358
2975,-0.117902,-0.394164,0.341919
2976,0.029165,-0.234204,0.408071
2977,0.135803,0.018068,0.458056
2978,0.154626,0.075581,0.477155
2979,-0.104321,0.015531,0.408643
2980,-0.38475,0.085958,0.436792
2981,-0.368468,0.12019,0.467512
2982,-0.306921,0.186006,0.405595
2983,-0.30636,0.267249,0.359781
2984,-0.350089,0.581598,0.47618
2985,-0.366735,0.707466,0.294887
2986,-0.304096,0.802722,0.228723
2987,-0.041922,0.758533,-0.065717
2988,0.319106,0.10867,-0.251784
2989,0.308091,0.029629,-0.169272
2990,0.263102,-0.040752,0.03434
2991,0.336341,0.105822,0.289468
2992,0.371093,0.287239,0.523006
2993,0.273967,0.360091,0.619911
2994,0.162632,0.256993,0.363806
2995,-0.190603,-0.100232,-0.026775
2996,-0.282716,-0.133565,-0.02378
2997,-0.368325,-0.180121,0.032372
2998,-0.287084,-0.319074,0.108364
2999,-0.079344,-0.348503,0.24443
3000,0.103392,-0.394695,0.295412
3001,0.20509,-0.473303,0.353232
3002,0.233635,-0.562318,0.435441
3003,0.159872,-0.542799,0.489032
3004,0.003472,-0.369125,0.510079
3005,-0.027036,-0.26323,0.483478
3006,-0.072509,-0.117111,0.404491
3007,-0.079032,0.005294,0.300976
3008,0.027228,0.114918,0.220061
3009,0.150769,0.302368,0.321851
3010,-0.090627,0.393608,0.539728
3011,-0.139582,0.18993,0.560991
3012,0.025494,0.084364,0.467391
3013,-0.051393,0.486613,0.752764
3014,-0.041671,0.65085,0.669912
3015,0.089991,1.015207,0.621367
3016,0.453317,0.132216,-0.124513
3017,0.683668,-0.156276,-0.359074
3018,0.495783,0.154944,-0.208688
3019,0.185794,0.041565,0.295267
3020,0.081086,-0.131051,0.368484
3021,-0.173502,-0.259402,-0.085127
3022,-0.156949,-0.218256,-0.151547
3023,-0.128751,-0.018393,-0.046794
3024,0.215404,-0.00584,0.109582
3025,0.347421,0.023882,0.183888
3026,0.418802,-0.002484,0.235698
3027,0.432276,-0.179286,0.335982
3028,0.238838,-0.244776,0.361455
3029,0.075107,-0.258277,0.358325
3030,-0.002648,-0.222518,0.249631
3031,-0.059417,-0.252985,0.131791
3032,-0.083126,-0.238908,0.204762
3033,-0.058214,-0.253787,0.340263
3034,-0.037657,-0.318841,0.425651
3035,-0.006322,-0.19247,0.515466
3036,0.037828,-0.117296,0.447026
3037,-0.03384,-0.07946,0.391635
3038,-0.117398,0.003046,0.427789
3039,-0.184421,0.115504,0.523777
3040,-0.212831,0.189345,0.56929
3041,-0.24096,0.251413,0.423866
3042,-0.29254,0.557257,0.481204
3043,-0.260379,0.666559,0.421712
3044,-0.17142,0.680568,0.219096
3045,0.072965,0.678672,-0.023368
3046,0.317973,0.212947,-0.311982
3047,0.271564,0.080778,-0.310183
3048,0.127531,0.047318,-0.089803
3049,0.236345,0.370978,0.32329
3050,0.301218,0.466216,0.46899
3051,0.336172,0.48861,0.623189
3052,0.342816,0.315476,0.37949
3053,0.131317,-0.015779,0.061215
3054,-0.205449,-0.212219,0.054779
3055,-0.365557,-0.256223,0.090907
3056,-0.373912,-0.338507,0.138552
3057,-0.172489,-0.360555,0.243674
3058,-0.026133,-0.397992,0.283273
3059,0.080649,-0.451776,0.31076
3060,0.125787,-0.540991,0.364161
3061,0.131062,-0.531825,0.516924
3062,0.073207,-0.453379,0.583846
3063,0.00778,-0.323643,0.604086
3064,-0.101844,-0.156304,0.413265
3065,-0.116215,-0.070125,0.317245
3066,-0.024298,0.108582,0.185405
3067,0.262233,0.377524,0.397558
3068,0.164949,0.47826,0.521049
3069,0.083818,0.332019,0.479403
3070,-0.019632,0.481257,0.56379
3071,-0.084807,0.823722,0.681664
3072,0.013434,0.959999,0.65941
3073,0.053739,0.81485,0.496217
3074,0.377768,-0.252412,-0.130781
3075,0.527037,-0.183779,-0.396452
3076,0.456592,0.017771,-0.285797
3077,0.102023,0.019809,0.239992
3078,-0.166495,-0.052609,0.147559
3079,-0.20505,-0.111596,-0.152899
3080,-0.094554,-0.068793,-0.012868
3081,0.188066,0.096359,0.149991
3082,0.279425,0.118165,0.135011
3083,0.363617,0.046392,0.201495
3084,0.439056,-0.155672,0.389605
3085,0.377302,-0.303572,0.36841
3086,0.2849,-0.371774,0.356345
3087,0.009996,-0.410965,0.307657
3088,-0.11831,-0.328961,0.189266
3089,-0.18849,-0.305976,0.146905
3090,-0.265131,-0.161068,0.220692
3091,-0.207061,-0.233342,0.332107
3092,-0.155028,-0.303428,0.381586
3093,0.012623,-0.076156,0.543955
3094,0.036033,-0.028147,0.453915
3095,-0.03713,0.016783,0.466814
3096,-0.206408,0.076156,0.561767
3097,-0.274945,0.192781,0.649563
3098,-0.25386,0.270331,0.607159
3099,-0.368949,0.446358,0.360969
3100,-0.325402,0.753808,0.417207
3101,-0.282282,0.722642,0.170821
3102,-0.077766,0.71712,-0.049212
3103,0.182288,0.434089,-0.120808
3104,0.336666,0.089437,-0.22354
3105,0.165602,-0.102186,-0.187501
3106,0.063331,0.042952,0.010218
3107,0.144723,0.236044,0.282815
3108,0.178898,0.485035,0.576688
3109,0.224814,0.567398,0.577395
3110,0.238728,0.27415,0.174006
3111,-0.051364,-0.173271,-0.011035
3112,-0.357763,-0.285542,0.053327
3113,-0.38266,-0.315249,0.073933
3114,-0.102536,-0.394309,0.23833
3115,-0.036353,-0.372014,0.274923
3116,0.083597,-0.47062,0.310453
3117,0.115541,-0.606626,0.37975
3118,0.080933,-0.647968,0.42843
3119,-0.010942,-0.517312,0.50381
3120,-0.057558,-0.32173,0.442464
3121,-0.089604,-0.111832,0.364251
3122,-0.045169,-0.00064,0.341856
3123,0.126417,0.158753,0.357704
3124,0.193862,0.316952,0.39677
3125,0.151444,0.571216,0.49011
3126,-0.044253,0.14237,0.47611
3127,0.033374,0.177922,0.398739
3128,-0.13736,0.467074,0.643863
3129,-0.123186,1.077058,0.726011
3130,0.013125,0.62051,0.350486
3131,0.148599,0.293704,0.117938
3132,0.556129,0.04281,-0.270006
3133,0.397124,0.137061,-0.069584
3134,0.173435,0.015027,0.300108
3135,-0.084735,-0.171353,0.189538
3136,-0.211517,-0.161906,-0.202165
3137,-0.179675,-0.067238,-0.193542
3138,0.073233,-0.006466,0.063808
3139,0.220927,0.119874,0.225484
3140,0.401411,0.103055,0.286357
3141,0.449332,-0.110115,0.442776
3142,0.406565,-0.162977,0.428591
3143,0.227553,-0.294946,0.338384
3144,0.011574,-0.389073,0.277333
3145,-0.133513,-0.323864,0.176676
3146,-0.268046,-0.284986,0.086811
3147,-0.301443,-0.233795,0.187487
3148,-0.231585,-0.285841,0.309158
3149,-0.089271,-0.364564,0.392109
3150,0.038483,-0.162018,0.519999
3151,0.07655,-0.045874,0.412774
3152,0.003973,-0.013396,0.384716
3153,-0.174456,0.047459,0.410251
3154,-0.302558,0.166576,0.547568
3155,-0.2879,0.186318,0.571481
3156,-0.277881,0.179906,0.482154
3157,-0.414896,0.577967,0.512604
3158,-0.344701,0.629687,0.528425
3159,-0.230893,0.742254,0.150272
3160,-0.071957,0.764213,0.0629
3161,0.274013,0.311376,-0.103167
3162,0.281254,-0.02837,-0.23304
3163,0.127368,-0.137188,-0.07309
3164,0.115351,-0.026508,0.041449
3165,0.184769,0.302715,0.368584
3166,0.184279,0.381168,0.562879
3167,0.198574,0.362628,0.541182
3168,0.057176,0.0556,0.066734
3169,-0.238708,-0.142931,-0.023367
3170,-0.335894,-0.138415,-0.003511
3171,-0.333262,-0.188664,0.119623
3172,-0.108056,-0.224883,0.23583
3173,0.078363,-0.250573,0.28805
3174,0.175831,-0.375551,0.315613
3175,0.219967,-0.540656,0.398479
3176,0.168032,-0.595826,0.464362
3177,0.08842,-0.544399,0.528837
3178,-0.010523,-0.409352,0.475352
3179,-0.088365,-0.274679,0.442721
3180,-0.174708,-0.10098,0.385722
3181,-0.047355,0.021864,0.252877
3182,0.084252,0.098043,0.260803
3183,0.178608,0.386286,0.420379
3184,-0.030824,0.584349,0.489089
3185,0.057805,0.400614,0.469334
3186,-0.039837,0.466312,0.582023
3187,-0.060619,0.825646,0.682789
3188,-0.010465,0.728392,0.639819
3189,0.092773,0.282594,0.3852
3190,0.276855,-0.115597,0.03132
3191,0.471838,0.036754,-0.229167
3192,0.397565,0.066716,-0.088094
3193,0.247326,-0.039083,0.093885
3194,-0.040945,-0.011409,0.152276
3195,-0.196416,-0.025656,-0.058262
3196,-0.086223,-0.09063,0.033019
3197,0.044543,-0.102688,0.100756
3198,0.209248,0.010533,0.127013
3199,0.321224,-0.03748,0.283772
3200,0.320528,-0.091288,0.367703
3201,0.31385,-0.184647,0.394546
3202,0.231833,-0.267652,0.303231
3203,0.167222,-0.327193,0.286998
3204,-0.097958,-0.324372,0.248835
3205,-0.132652,-0.320389,0.201151
3206,-0.112585,-0.363227,0.192255
3207,-0.055301,-0.211459,0.41117
3208,-0.041652,-0.105352,0.486594
3209,0.047322,0.053806,0.540383
3210,-0.082066,-0.008351,0.381485
3211,-0.197593,-0.015195,0.380952
3212,-0.284038,0.020422,0.397316
3213,-0.256153,0.117259,0.530742
3214,-0.213937,0.116973,0.579255
3215,-0.262119,0.216775,0.464553
3216,-0.311076,0.69158,0.434752
3217,-0.35166,0.679993,0.3702
3218,-0.279169,0.732916,0.172354
3219,0.120949,0.574968,-0.174664
3220,0.405485,0.221017,-0.33058
3221,0.422532,-0.005269,-0.180421
3222,0.359666,-0.060669,0.122599
3223,0.383926,0.306799,0.503758
3224,0.384615,0.394398,0.572749
3225,0.28196,0.402574,0.446777
3226,0.021435,0.064323,0.041139
