,userAcceleration.x,userAcceleration.y,userAcceleration.z
0,-0.041777,0.051765,-0.302024
1,0.102208,0.452877,-0.5027
2,0.235413,0.85028,-0.48538
3,0.255279,0.815001,-0.42046
4,0.217612,0.53591,-0.350988
5,0.107897,0.147512,-0.011169
6,-0.048899,0.42993,0.229556
7,-0.154702,0.610193,0.180481
8,-0.327747,-0.22382,0.402096
9,-0.371368,-0.369878,0.421112
10,-0.098495,-0.265753,0.512832
11,0.107345,-0.234559,0.50744
12,0.096565,0.174018,0.321901
13,0.024599,0.437682,0.248957
14,-0.065459,0.32364,0.17605
15,0.013277,-0.050097,0.129504
16,0.020687,-0.327474,0.091536
17,0.063666,-0.432299,0.136734
18,0.102177,-0.345207,0.128766
19,0.123071,-0.032351,0.105447
20,0.120009,-0.051205,0.072055
21,0.114932,-0.111797,0.037448
22,0.045229,-0.282353,-0.056052
23,0.03694,-0.259786,-0.098369
24,0.067338,-0.196784,-0.105894
25,0.198144,-0.012216,-0.089598
26,0.262017,-0.020464,-0.053983
27,0.229402,-0.107991,-0.053977
28,0.188791,-0.148921,0.002547
29,0.251707,-0.025332,0.060798
30,0.354326,0.220437,-0.049464
31,0.323441,0.352763,-0.193137
32,0.304673,0.401865,-0.249414
33,0.306697,0.52318,-0.12075
34,0.379003,0.538967,0.066209
35,0.266273,0.348153,0.030705
36,-0.086319,0.096639,-0.089552
37,-0.177883,0.145027,-0.065518
38,-0.305261,0.398853,0.078457
39,-0.327133,1.029184,0.211137
40,-0.211038,0.776653,0.16238
41,-0.027344,0.32073,-0.003857
42,-0.033862,0.257089,0.016665
43,-0.047545,0.268235,0.125264
44,-0.009825,0.171919,0.219423
45,-0.038624,-0.20199,0.306924
46,-0.037454,-0.316805,0.431525
47,-0.032876,-0.469926,0.541384
48,-0.052788,-0.596427,0.485386
49,-0.147774,-0.636056,0.458388
50,-0.214594,-0.601901,0.430818
51,-0.153821,-0.546194,0.38824
52,-0.132543,-0.513536,0.364238
53,-0.157055,-0.3974,0.163527
54,-0.177898,-0.272966,-0.00412
55,-0.154117,0.025035,-0.293892
56,0.112176,0.5076,-0.446079
57,0.317947,0.917158,-0.522535
58,0.301817,0.858203,-0.539695
59,0.22304,-0.076889,-0.299562
60,0.090322,-0.127019,-0.324958
61,0.132576,0.306379,-0.15693
62,0.139716,0.849052,0.18808
63,0.104584,1.044553,0.436413
64,-0.198627,-0.046628,0.541097
65,-0.656237,-0.303027,0.279282
66,-0.293175,-0.173708,0.395442
67,-0.244674,-0.132083,0.513143
68,-0.237659,-0.115875,0.437613
69,-0.127526,0.096078,0.365888
70,-0.046103,0.398652,0.321017
71,0.028792,0.265407,0.262693
72,0.082718,-0.111988,0.087924
73,0.128591,-0.461993,0.054367
74,0.136855,-0.462485,0.067981
75,0.159469,-0.38759,0.074892
76,0.079957,-0.256877,0.038125
77,0.024135,-0.190364,-0.063773
78,0.064602,-0.155125,-0.098888
79,0.2109,-0.064178,-0.156704
80,0.268598,-0.063516,-0.184924
81,0.315038,-0.063632,-0.215114
82,0.345147,-0.040556,-0.120546
83,0.383864,0.040531,-0.037168
84,0.366519,0.061783,-0.006447
85,0.308794,0.308463,-0.191543
86,0.227879,0.471128,-0.338398
87,0.24486,0.482414,-0.331367
88,0.217225,0.467543,0.013512
89,0.132654,0.318763,0.124432
90,-0.228043,0.124866,0.033156
91,-0.326531,0.262732,0.063025
92,-0.467608,0.765291,0.32814
93,-0.536947,0.8412,0.257974
94,-0.355311,0.542154,0.154705
95,-0.079158,0.326149,0.009026
96,-0.139857,0.210635,0.094569
97,-0.060745,0.21861,0.226048
98,-0.061758,0.137583,0.278984
99,-0.062218,-0.287076,0.404813
100,-0.086208,-0.41983,0.499453
101,-0.154379,-0.611741,0.570455
102,-0.199484,-0.702439,0.473703
103,-0.261379,-0.622567,0.390685
104,-0.240915,-0.540905,0.269293
105,-0.17286,-0.474175,0.201366
106,-0.153476,-0.365546,0.130237
107,-0.120114,-0.274611,0.00431
108,-0.063336,-0.137519,-0.18468
109,0.031173,0.197993,-0.421244
110,0.129802,0.637194,-0.532755
111,0.150519,0.801458,-0.546517
112,0.263988,0.402341,-0.39576
113,0.018065,-0.158572,-0.305588
114,0.018185,-0.149814,-0.25718
115,-0.022808,0.430286,-0.017871
116,-0.122723,0.972588,0.22867
117,-0.200767,0.501786,0.404966
118,-0.259686,-0.334243,0.456014
119,-0.326874,-0.272124,0.464004
120,-0.015993,-0.146141,0.570881
121,0.027299,0.18029,0.403204
122,0.02171,0.203625,0.335669
123,-0.029957,0.221994,0.292175
124,-0.140394,0.116268,0.276133
125,-0.078413,0.00959,0.233145
126,-0.057636,-0.126267,0.191367
127,0.012711,-0.362593,0.122299
128,0.041542,-0.344049,0.125193
129,0.070336,-0.251914,0.126363
130,0.073428,-0.059826,0.062428
131,0.063319,-0.077854,0.034033
132,0.08189,-0.147816,-0.009457
133,0.132359,-0.19789,-0.153199
134,0.2533,-0.173237,-0.228924
135,0.431136,-0.110675,-0.134139
136,0.457819,-0.053415,0.000372
137,0.324831,-0.05348,-0.004001
138,0.190058,0.071229,0.003779
139,0.226289,0.201932,-0.028883
140,0.13329,0.356064,-0.193235
141,0.129176,0.5713,-0.274036
142,0.185416,0.492358,-0.171664
143,0.346051,0.649345,0.024793
144,0.127046,0.309178,0.013358
145,-0.069315,0.116489,0.026961
146,-0.211787,0.17003,0.026073
147,-0.39514,0.401318,0.254358
148,-0.441184,0.720697,0.395873
149,-0.35783,0.59128,0.336308
150,0.027671,0.306159,-0.020221
151,0.022863,0.308027,0.070637
152,-0.049327,0.293691,0.142042
153,-0.03247,0.0868,0.231147
154,-0.087663,-0.203749,0.347523
155,-0.093604,-0.443901,0.538495
156,-0.118464,-0.601597,0.515186
157,-0.15549,-0.632544,0.490507
158,-0.184605,-0.625725,0.489594
159,-0.173431,-0.606669,0.406565
160,-0.123035,-0.557815,0.315165
161,-0.156997,-0.520965,0.248337
162,-0.189487,-0.376406,0.031069
163,-0.21606,-0.21522,-0.206399
164,-0.059522,0.133625,-0.415657
165,0.2431,0.781696,-0.467109
166,0.295055,1.135689,-0.563012
167,0.432796,0.447375,-0.329845
168,0.067152,-0.39849,-0.239137
169,-0.047937,-0.504082,-0.288297
170,0.026846,0.090438,-0.10233
171,-0.12096,0.648957,0.2119
172,0.018303,1.044696,0.36018
173,-0.08524,0.175059,0.494732
174,-0.339736,-0.139864,0.462375
175,-0.0104,-0.047966,0.497069
176,-0.015946,-0.078804,0.438353
177,-0.134784,0.007469,0.377612
178,-0.147746,0.023856,0.327912
179,-0.105925,0.132941,0.320262
180,0.043206,0.02289,0.261144
181,0.039989,-0.183583,0.124899
182,0.065241,-0.315392,0.05298
183,0.059976,-0.333017,0.091531
184,0.055954,-0.203595,0.122962
185,0.028027,-0.173281,0.123448
186,0.016675,-0.147066,0.040826
187,0.062099,-0.152336,-0.057138
188,0.145122,-0.162877,-0.149812
189,0.238573,-0.206188,-0.167587
190,0.349751,-0.127742,-0.134756
191,0.403264,0.038802,-0.041729
192,0.331229,0.06864,0.020897
193,0.246266,0.128737,-0.0006
194,0.27389,0.209129,-0.031864
195,0.231169,0.406294,-0.253673
196,0.232283,0.423397,-0.352443
197,0.234069,0.462592,-0.129663
198,0.285297,0.369798,0.001505
199,0.077409,0.118823,0.069352
200,-0.117565,0.139386,0.118439
201,-0.300928,0.418216,0.233401
202,-0.396127,0.893271,0.426683
203,-0.441945,0.722788,0.314691
204,-0.346376,0.458988,0.221429
205,-0.098112,0.204026,-0.039849
206,-0.136155,0.224889,0.006361
207,-0.081501,0.259452,0.175433
208,-0.022905,-0.063731,0.216853
209,-0.075993,-0.171457,0.295996
210,-0.124831,-0.417384,0.519027
211,-0.150304,-0.556722,0.540105
212,-0.107697,-0.593235,0.515137
213,-0.182067,-0.628852,0.441542
214,-0.168597,-0.625177,0.331195
215,-0.130658,-0.545374,0.256969
216,-0.161946,-0.424912,0.188606
217,-0.207401,-0.386827,0.092848
218,-0.247564,-0.258563,-0.086469
219,-0.13541,0.068436,-0.349266
220,0.182747,0.667141,-0.470463
221,0.266106,1.140692,-0.641251
222,0.337518,0.689181,-0.44404
223,0.036455,0.048011,-0.310637
224,0.027436,0.102377,-0.266978
225,0.165024,0.736452,0.203815
226,-0.106715,0.744339,0.374094
227,-0.288696,-0.326794,0.440133
228,-0.517008,-0.379266,0.305268
229,-0.241444,-0.305972,0.544407
230,0.094113,-0.154563,0.612806
231,0.071726,0.14384,0.388434
232,0.034667,0.446136,0.356695
233,-0.130552,0.496271,0.29868
234,-0.081443,0.174355,0.282524
235,-0.026344,-0.195773,0.15357
236,0.006141,-0.413962,0.072263
237,0.030332,-0.407173,0.082586
238,0.055044,-0.227652,0.176207
239,0.014936,-0.194045,0.170168
240,-0.019831,-0.211658,0.114578
241,-0.005755,-0.206662,0.005442
242,0.044616,-0.150601,-0.115129
243,0.155688,-0.113537,-0.164925
244,0.272928,-0.10515,-0.169734
245,0.410701,0.014059,-0.117602
246,0.341072,-0.05122,-0.083807
247,0.292947,-0.017765,-0.037423
248,0.30724,0.161017,-0.03783
249,0.289184,0.38618,-0.180568
250,0.173745,0.373476,-0.287812
251,0.191889,0.439394,-0.15447
252,0.15663,0.383446,-0.146334
253,0.24123,0.298123,0.120734
254,0.007183,0.15844,0.034432
255,-0.2531,0.189116,0.1126
256,-0.370176,0.454717,0.346355
257,-0.549682,0.895269,0.304547
258,-0.464037,0.69939,0.169195
259,-0.088984,0.395648,-0.046171
260,0.078768,0.33624,-0.01318
261,-0.027928,0.516468,0.114476
262,-0.049422,0.278606,0.196867
263,-0.081687,-0.128361,0.281712
264,-0.102924,-0.263007,0.42432
265,-0.135847,-0.55244,0.624022
266,-0.124344,-0.603392,0.585298
267,-0.219098,-0.617597,0.388882
268,-0.224433,-0.586733,0.359629
269,-0.19393,-0.602386,0.29007
270,-0.193449,-0.571195,0.206466
271,-0.175868,-0.522933,0.125441
272,-0.164235,-0.417534,0.006271
273,-0.086465,-0.143989,-0.199395
274,0.143733,0.465099,-0.42015
275,0.276305,1.184823,-0.594825
276,0.419827,0.973947,-0.427008
277,0.142035,-0.198616,-0.332984
278,-0.069044,-0.595903,-0.300571
279,-0.030545,-0.218053,-0.0284
280,-0.123069,0.693008,0.301455
281,0.134399,1.95889,0.157884
282,-0.10643,-0.398543,0.498729
283,-0.245439,-0.541901,0.48194
284,-0.264234,-0.356257,0.447694
285,0.051609,-0.183113,0.48484
286,0.023751,0.019254,0.419397
287,-0.073085,0.338266,0.35631
288,-0.096727,0.425817,0.32092
289,-0.078867,0.213928,0.280429
290,-0.103292,-0.108489,0.11358
291,-0.086844,-0.333173,0.058187
292,-0.024168,-0.338266,0.13535
293,0.021372,-0.269934,0.189936
294,0.039409,-0.234108,0.184382
295,0.033789,-0.223936,0.129553
296,0.072798,-0.192034,0.022683
297,0.112369,-0.201302,-0.071029
298,0.188641,-0.199668,-0.123034
299,0.21322,-0.141966,-0.219004
300,0.311021,0.044166,-0.147085
301,0.238539,0.02575,-0.096517
302,0.141637,0.041774,-0.132779
303,0.243923,0.20375,-0.107088
304,0.322797,0.343261,-0.22714
305,0.298983,0.387658,-0.291896
306,0.260986,0.516449,-0.074474
307,0.155687,0.36307,0.045218
308,-0.06811,0.144663,0.119755
309,-0.212483,0.13887,0.093365
310,-0.430387,0.505176,0.247659
311,-0.535951,0.897382,0.450407
312,-0.548575,0.887732,0.471795
313,-0.143111,0.353851,0.087245
314,0.151326,0.313214,-0.098244
315,0.194729,0.360861,-0.070825
316,-0.010933,0.104866,0.218327
317,-0.053757,-0.042506,0.292254
318,0.023488,-0.141764,0.365548
319,-0.181541,-0.472647,0.460486
320,-0.289779,-0.490594,0.438367
321,-0.328301,-0.548183,0.408506
322,-0.250467,-0.570911,0.417832
323,-0.176543,-0.605452,0.333929
324,-0.149593,-0.534271,0.222203
325,-0.116413,-0.450159,0.157043
326,-0.141119,-0.370227,0.084032
327,-0.163071,-0.007809,-0.139139
328,-0.079966,0.228965,-0.257065
329,0.169011,0.841378,-0.488216
330,0.228409,0.806387,-0.516268
331,0.089645,-0.090108,-0.351421
332,-0.0853,-0.345403,-0.245732
333,-0.10937,0.06081,-0.012257
334,-0.090277,0.452679,0.202497
335,0.02358,1.218145,0.335538
336,0.019912,-0.362917,0.576088
337,-0.20218,-0.496715,0.474241
338,-0.097043,-0.209837,0.496777
339,0.098754,-0.018497,0.423656
340,0.117636,0.216157,0.387641
341,-0.070101,0.452423,0.384682
342,-0.247889,0.407218,0.363769
343,-0.283988,0.151024,0.290214
344,-0.198328,-0.182038,0.169473
345,-0.123496,-0.323846,0.112652
346,-0.096103,-0.310805,0.146028
347,-0.048189,-0.203416,0.203385
348,-0.042242,-0.206722,0.197602
349,0.015182,-0.209109,0.194358
350,0.028329,-0.205636,0.151374
351,0.100019,-0.162177,-0.008018
352,0.125712,-0.124519,-0.102543
353,0.136177,-0.102849,-0.161851
354,0.262773,0.082962,-0.094746
355,0.324302,0.00831,0.092485
356,0.288779,0.024558,0.076706
357,0.305384,0.066,0.043339
358,0.356445,0.280878,-0.144735
359,0.310516,0.301414,-0.2006
360,0.239783,0.317968,-0.19258
361,0.106502,0.402403,0.062088
362,0.119524,0.423799,0.073524
363,0.006343,0.13223,0.141919
364,-0.198062,-0.0185,0.044138
365,-0.40715,0.064812,0.089258
366,-0.481314,0.362152,0.279046
367,-0.506206,0.839579,0.291441
368,-0.298198,0.579477,0.019075
369,-0.076478,0.350493,-0.118811
370,0.038326,0.253682,-0.037867
371,0.014826,0.206878,0.115808
372,0.072842,-0.119432,0.276236
373,-0.004917,-0.213327,0.354525
374,-0.127708,-0.369806,0.502116
375,-0.215039,-0.504921,0.421993
376,-0.26052,-0.53525,0.32885
377,-0.32521,-0.504006,0.25996
378,-0.292818,-0.433428,0.147191
379,-0.252951,-0.358684,0.035774
380,-0.190602,-0.340375,-0.012618
381,-0.131987,-0.295308,-0.066242
382,-0.062736,-0.094336,-0.190488
383,0.10869,0.248468,-0.41597
384,0.296245,0.520148,-0.4694
385,0.345914,0.503945,-0.391295
386,0.248789,0.104494,-0.280506
387,0.006588,-0.222929,-0.157088
388,-0.139834,-0.036748,0.129537
389,-0.25977,0.929175,0.415907
390,-0.369356,1.317834,0.487952
391,-0.325641,0.035076,0.56319
392,-0.429051,-0.419354,0.402111
393,-0.28912,-0.420537,0.274617
394,-0.262352,-0.052314,0.415866
395,-0.188718,0.079772,0.346412
396,0.005838,0.460073,0.300009
397,0.102868,0.255039,0.286187
398,0.116969,0.045741,0.233977
399,0.11912,-0.117175,0.184595
400,-0.134359,-0.266374,0.020647
401,-0.120488,-0.270457,-0.00415
402,-0.168475,-0.275459,0.045995
403,-0.041754,-0.163782,-0.029118
404,0.0499,-0.124559,-0.091143
405,0.259204,-0.080509,-0.22063
406,0.524972,-0.06142,-0.264922
407,0.61217,-0.134262,-0.312014
408,0.965064,-0.056142,-0.087186
409,0.761643,0.020525,-0.032387
410,0.420958,0.186176,-0.123303
411,0.224937,0.19718,-0.097089
412,0.086609,0.219632,-0.144963
413,0.104498,0.207047,-0.158818
414,0.097696,0.234042,-0.056928
415,0.002077,0.08556,0.122918
416,-0.160667,-0.066284,0.298858
417,-0.369119,0.112316,0.186543
418,-0.539938,0.479289,0.384514
419,-0.641115,1.13103,0.361193
420,-0.57396,0.724181,0.18586
421,-0.115724,0.51196,-0.099747
422,0.089764,0.425515,-0.051412
423,0.11249,0.422453,0.050905
424,0.170879,0.234271,0.169924
425,0.06178,-0.089526,0.290939
426,-0.053877,-0.398667,0.599748
427,-0.125268,-0.585493,0.641135
428,-0.204858,-0.69826,0.563326
429,-0.328993,-0.716402,0.461156
430,-0.352608,-0.623105,0.310537
431,-0.337508,-0.452351,0.149841
432,-0.281527,-0.254585,0.024118
433,-0.231579,-0.073319,-0.071823
434,-0.223617,0.258907,-0.24455
435,0.099156,0.992444,-0.559798
436,0.198144,1.366073,-0.493039
437,0.303593,-0.061818,0.293048
438,-0.094447,-0.21308,0.431986
439,-0.648272,-0.070983,0.517471
440,-0.558849,-0.027986,0.384763
441,-0.204208,-0.041592,0.492691
442,0.042052,0.327709,0.311506
443,0.322795,0.673972,0.254302
444,0.45948,0.674245,0.212916
445,0.623088,-0.072468,0.069381
446,0.628469,-0.083208,0.028767
447,0.430117,-0.38743,0.109296
448,0.208885,-0.421725,0.082386
449,0.139453,-0.430011,0.050183
450,-0.010575,-0.4391,0.031278
451,-0.189435,-0.371907,-0.001134
452,-0.267514,-0.253919,-0.030366
453,-0.253197,-0.208325,-0.009428
454,0.033276,-0.185769,-0.001657
455,0.193807,-0.12233,-0.073264
456,0.271805,-0.079308,-0.144628
457,0.499016,0.462963,-0.329657
458,0.594342,0.541229,-0.333634
459,0.697753,0.501569,-0.336045
460,0.751646,0.398807,-0.138461
461,0.512774,0.457479,0.240485
462,0.175649,0.097398,0.114961
463,-0.094328,0.252009,0.201357
464,-0.179955,1.008086,0.068771
465,-0.546954,1.624955,0.606171
466,-0.646977,0.84594,0.508613
467,-0.472823,0.612483,0.249037
468,-0.240498,0.411918,0.061228
469,0.0598,0.388771,0.021327
470,0.060246,0.299009,0.227655
471,0.0314,-0.053001,0.433466
472,-0.015677,-0.425642,0.689692
473,-0.090217,-0.683981,0.805714
474,-0.12984,-0.847699,0.737094
475,-0.214078,-0.811719,0.59307
476,-0.299031,-0.731293,0.514413
477,-0.295829,-0.693382,0.323122
478,-0.296752,-0.599798,0.113813
479,-0.29819,-0.492969,0.047167
480,-0.233873,-0.281261,-0.038748
481,-0.013938,0.070905,-0.316017
482,0.275338,0.930315,-0.478558
483,0.333423,1.222729,-0.626484
484,0.059513,-0.192219,-0.241144
485,-0.032131,-0.426399,-0.197248
486,0.103677,-0.093464,-0.210872
487,0.032999,0.673682,0.206988
488,0.151861,1.326595,0.293637
489,-0.054245,0.030038,0.680495
490,-0.388369,-0.453667,0.493198
491,-0.152585,-0.320099,0.532873
492,0.2928,-0.224658,0.606659
493,0.234609,-0.028593,0.535335
494,0.017929,0.284666,0.467121
495,-0.247261,0.388775,0.363677
496,-0.503968,0.425571,0.160638
497,-0.212464,-0.150059,0.044057
498,0.169065,-0.436645,0.078296
499,0.298035,-0.498096,0.24255
500,0.17657,-0.474841,0.278133
501,0.143873,-0.329327,0.28485
502,-0.022589,-0.216427,0.181561
503,0.009139,-0.166226,-0.024347
504,0.144139,-0.104674,-0.244841
505,0.317269,0.0348,-0.293014
506,0.51659,0.14446,-0.192828
507,0.597304,0.030026,0.021433
508,0.593626,0.04886,0.105123
509,0.594089,0.218198,-0.093296
510,0.464215,0.450485,-0.378764
511,0.372855,0.558228,-0.302158
512,0.266232,0.398005,-0.124165
513,0.221744,0.083347,0.170088
514,0.053232,0.181992,0.170469
515,-0.298854,0.495844,0.366826
516,-0.573644,1.157659,0.47648
517,-0.788917,0.986326,0.378277
518,-0.482295,0.49528,-0.001052
519,-0.226618,0.423755,-0.068506
520,0.120972,0.313971,-0.007946
521,0.200508,0.445884,0.209214
522,0.211168,0.054117,0.303631
523,0.115538,-0.264793,0.427602
524,0.007852,-0.524311,0.67498
525,-0.063052,-0.735919,0.707778
526,-0.283129,-0.824457,0.543095
527,-0.308839,-0.795972,0.542381
528,-0.300086,-0.757596,0.493984
529,-0.271301,-0.527398,0.158107
530,-0.252748,-0.546318,0.130039
531,-0.197836,-0.421476,-0.014918
532,-0.048813,0.061063,-0.313927
533,0.094407,0.4307,-0.391185
534,0.164586,0.910805,-0.426522
535,0.340508,0.634789,-0.390002
536,0.031777,0.113451,-0.321383
537,0.008599,-0.349419,-0.328376
538,0.034692,0.150977,0.136695
539,0.110362,1.404122,0.41468
540,-0.066964,0.830611,0.537928
541,-0.063602,-0.565959,0.620023
542,-0.074376,-0.571579,0.604681
543,-0.048457,-0.44361,0.597833
544,0.10044,-0.169218,0.520498
545,0.072557,0.125139,0.415603
546,-0.142609,0.517316,0.374852
547,-0.294304,0.56271,0.298175
548,-0.063242,0.10429,0.170459
549,0.134812,-0.469276,0.044977
550,0.117925,-0.511911,0.101795
551,0.075456,-0.455832,0.198309
552,0.117189,-0.205585,0.203143
553,0.05966,-0.167872,0.117933
554,0.047718,-0.153146,-0.084455
555,0.06754,-0.179391,-0.156304
556,0.135117,-0.168601,-0.195393
557,0.356368,0.034316,-0.170776
558,0.527566,0.069812,-0.040343
559,0.465338,0.019524,0.022375
560,0.477737,0.125543,-0.04001
561,0.504622,0.266926,-0.219861
562,0.401854,0.46116,-0.354518
563,0.309757,0.566274,-0.028973
564,0.245935,0.366479,0.071149
565,0.078371,0.222191,0.109203
566,-0.246342,0.343882,0.129919
567,-0.537363,0.649529,0.270409
568,-0.83151,1.140998,0.438458
569,-0.663794,0.605745,0.233554
570,-0.283481,0.396997,-0.021525
571,0.127363,0.429722,0.038809
572,0.08762,0.488173,0.187635
573,0.083605,0.334702,0.302159
574,0.00955,-0.245172,0.501661
575,0.013838,-0.225713,0.536451
576,-0.162443,-0.554297,0.617426
577,-0.261013,-0.653364,0.461743
578,-0.330215,-0.630182,0.397142
579,-0.289246,-0.578224,0.33968
580,-0.185593,-0.558368,0.195647
581,-0.090848,-0.539906,0.076477
582,0.000109,-0.522176,-0.039143
583,-0.016054,-0.423968,-0.061091
584,0.01575,-0.119822,-0.226095
585,0.164713,0.535083,-0.467386
586,0.221352,1.195713,-0.548501
587,0.15565,0.739151,-0.333506
588,-0.217106,0.171799,-0.254555
589,-0.0003,0.369647,0.037056
590,-0.125181,0.8408,0.419223
591,-0.142708,-0.226464,0.422568
592,-0.14861,-0.477715,0.517031
593,-0.165745,-0.423471,0.73095
594,0.252318,-0.142873,0.587278
595,0.292237,0.301849,0.350736
596,0.007789,0.526138,0.372915
597,-0.307195,0.39324,0.357337
598,-0.390597,0.125477,0.244783
599,-0.134614,-0.299804,0.132494
600,0.011118,-0.441083,0.133327
601,0.078284,-0.430775,0.207329
602,0.165993,-0.240369,0.25379
603,0.184252,-0.062328,0.183421
604,0.108355,-0.086627,0.016149
605,0.07308,-0.174697,-0.111917
606,0.064564,-0.242231,-0.142002
607,0.112023,-0.248575,-0.197981
608,0.222426,-0.135706,-0.214361
609,0.430771,0.050769,-0.132488
610,0.541973,0.13083,0.06303
611,0.449758,0.160933,0.002449
612,0.395361,0.322691,-0.240102
613,0.172483,0.526066,-0.416476
614,0.169699,0.525115,-0.407799
615,0.235545,0.457362,0.095491
616,0.251893,0.167937,0.152173
617,0.228254,0.098043,0.143456
618,-0.241845,0.351902,0.188747
619,-0.429626,0.885466,0.327239
620,-0.518796,1.119366,0.3654
621,-0.381366,0.38952,0.139144
622,-0.028932,0.251897,0.070375
623,0.133177,0.485538,0.183712
624,0.101197,0.332029,0.283111
625,0.081502,0.00074,0.329885
626,-0.017389,-0.29924,0.513545
627,-0.095579,-0.548858,0.615525
628,-0.146904,-0.688068,0.50661
629,-0.203937,-0.682578,0.46622
630,-0.211098,-0.655671,0.509068
631,-0.162579,-0.722338,0.290004
632,-0.156395,-0.666182,0.157956
633,-0.131977,-0.630195,0.060844
634,-0.028418,-0.229734,-0.333501
635,0.088592,0.010699,-0.476739
636,0.015129,1.026758,-0.443203
637,0.346905,1.051708,-0.360903
638,-0.09831,0.210555,-0.12818
639,-0.230961,-0.03274,-0.112048
640,0.100045,0.602162,0.148272
641,-0.09065,1.331528,0.3674
642,-0.11639,0.034147,0.510171
643,-0.22804,-0.556581,0.603998
644,-0.14268,-0.332982,0.739799
645,0.102509,-0.162368,0.602937
646,0.240833,-0.041186,0.436894
647,0.124819,0.334051,0.438966
648,-0.154683,0.525421,0.41657
649,-0.394844,0.36976,0.337618
650,-0.237594,0.023924,0.197221
651,0.009037,-0.376893,0.076969
652,0.066092,-0.452324,0.162651
653,0.072358,-0.432023,0.23874
654,0.153293,-0.200377,0.305045
655,0.108105,-0.046287,0.172384
656,0.090321,-0.062465,-0.01628
657,0.153678,-0.190526,-0.086607
658,0.201197,-0.294175,-0.167349
659,0.266731,-0.279985,-0.232173
660,0.442525,0.032577,-0.161346
661,0.590483,0.167635,-0.064397
662,0.469043,0.097066,-0.062479
663,0.378527,0.198858,-0.092017
664,0.250758,0.308149,-0.273241
665,0.236255,0.423405,-0.330131
666,0.214224,0.570421,-0.017803
667,0.178406,0.315782,0.06323
668,0.138273,0.041211,0.158507
669,-0.03261,0.23039,0.124254
670,-0.374615,0.964462,0.397358
671,-0.488606,1.075741,0.434914
672,-0.546815,0.880515,0.425994
673,-0.119485,0.322999,0.012667
674,0.015137,0.295524,0.054782
675,0.105517,0.363147,0.156049
676,0.180951,0.040041,0.268022
677,0.163601,-0.099209,0.351877
678,0.129968,-0.214265,0.487332
679,-0.119723,-0.614947,0.640101
680,-0.153102,-0.675197,0.604921
681,-0.253101,-0.69184,0.552958
682,-0.200493,-0.634663,0.436564
683,-0.185024,-0.573169,0.240734
684,-0.205304,-0.457637,0.124021
685,-0.227181,-0.325232,0.04416
686,-0.154313,-0.01762,-0.166388
687,0.105265,0.578437,-0.350286
688,0.061068,1.419769,-0.484653
689,0.205118,1.420042,-0.439653
690,-0.018737,-0.171796,-0.26262
691,-0.076019,-0.504225,-0.21661
692,0.071019,-0.325582,-0.209071
693,0.021156,0.638327,0.482481
694,0.090041,1.023342,0.638288
695,-0.330418,0.055478,0.557222
696,-0.345699,-0.260386,0.503132
697,-0.08684,-0.109009,0.593146
698,0.166124,-0.055755,0.554995
699,0.117286,0.163631,0.492731
700,-0.093768,0.338068,0.420369
701,-0.248981,0.298146,0.376938
702,-0.206081,0.0817,0.30457
703,0.050939,-0.306212,0.15272
704,0.077255,-0.350788,0.117801
705,0.097892,-0.340466,0.14738
706,0.089416,-0.230816,0.157584
707,0.088839,-0.163016,0.149037
708,0.029514,-0.12909,0.123209
709,0.056879,-0.182986,-0.013929
710,0.178207,-0.181334,-0.126989
711,0.333615,-0.103234,-0.223822
712,0.469062,0.000659,-0.171722
713,0.589061,0.018724,-0.026106
714,0.418571,-0.014698,0.024143
715,0.292829,0.167676,-0.062521
716,0.265245,0.357318,-0.198597
717,0.262109,0.475409,-0.296191
718,0.261797,0.493288,-0.210393
719,0.209129,0.361255,-0.066453
720,0.166343,0.056079,0.083089
721,-0.038431,0.13441,0.081178
722,-0.165799,0.242154,0.23883
723,-0.253021,0.423584,0.412509
724,-0.521482,0.732726,0.262719
725,-0.368293,0.364516,-0.019818
726,-0.202801,0.354638,0.003568
727,-0.006708,0.268676,0.138828
728,0.070532,0.244703,0.293217
729,0.09988,-0.039493,0.355554
730,0.007425,-0.233373,0.480545
731,-0.089448,-0.413105,0.612267
732,-0.169831,-0.527229,0.549052
733,-0.221969,-0.596293,0.479328
734,-0.231794,-0.595494,0.423765
735,-0.167842,-0.575893,0.294788
736,-0.108303,-0.527235,0.139575
737,-0.059209,-0.46212,0.050217
738,-0.091064,-0.378918,-0.061738
739,-0.044635,-0.112321,-0.221212
740,0.095357,0.548197,-0.297867
741,0.090492,1.254916,-0.464387
742,0.306028,0.903604,-0.288718
743,-0.181243,-0.105406,-0.219713
744,-0.309293,-0.353844,-0.194062
745,-0.118635,0.082703,0.179594
746,-0.261698,0.725345,0.363489
747,-0.257344,0.920489,0.272449
748,0.065897,-0.133366,0.615879
749,-0.009117,-0.320947,0.686948
750,0.05458,-0.016641,0.62773
751,0.249527,0.137058,0.360549
752,0.186594,0.144961,0.335849
753,0.068788,0.172824,0.360144
754,-0.210175,0.226063,0.378226
755,-0.191455,0.117887,0.323546
756,-0.111864,-0.13793,0.174381
757,-0.05051,-0.281561,0.068907
758,-0.013186,-0.329295,0.113387
759,-0.003939,-0.236073,0.205379
760,0.035669,-0.155395,0.207822
761,0.059541,-0.170736,0.122939
762,0.085413,-0.19497,0.020842
763,0.184037,-0.194385,-0.057959
764,0.323046,-0.152781,-0.181525
765,0.434432,-0.015417,-0.215697
766,0.496265,0.04868,-0.111709
767,0.424632,0.002914,-0.033151
768,0.358388,0.112784,0.007908
769,0.356064,0.315432,-0.122338
770,0.242028,0.38142,-0.317197
771,0.141733,0.376492,-0.274144
772,0.13098,0.448335,-0.131411
773,0.101615,-0.00817,0.030686
774,0.248101,-0.091388,0.202615
775,-0.068672,0.17073,0.243305
776,-0.143765,0.947876,0.33154
777,-0.387162,1.282169,0.326154
778,-0.530875,0.525375,0.150813
779,-0.371895,0.382427,-0.028799
780,-0.028491,0.374914,0.058236
781,-0.015708,0.379007,0.290027
782,0.025699,0.061372,0.370859
783,0.021655,-0.199244,0.486844
784,-0.055634,-0.423436,0.630985
785,-0.124867,-0.581019,0.578395
786,-0.180695,-0.592664,0.496369
787,-0.196814,-0.613301,0.455024
788,-0.175418,-0.630015,0.322711
789,-0.107692,-0.621253,0.18896
790,-0.07724,-0.463859,0.0356
791,-0.06815,-0.429756,-0.05576
792,-0.054335,-0.354373,-0.140645
793,0.237911,0.794842,-0.380513
794,0.196783,1.108433,-0.385969
795,0.225489,1.208732,-0.328232
796,-0.329299,-0.084658,-0.219661
797,-0.372438,-0.117259,-0.237625
798,-0.218783,0.031356,-0.159588
799,-0.254775,0.848444,0.425134
800,-0.239223,0.429616,0.47817
801,-0.109363,-0.078088,0.565164
802,-0.073532,-0.240916,0.75051
803,0.07031,-0.21801,0.756904
804,0.204615,-0.087459,0.610934
805,0.133563,0.403052,0.391866
806,-0.025318,0.356175,0.355487
807,-0.191056,0.19082,0.314908
808,-0.183265,-0.018671,0.226265
809,-0.026445,-0.291306,0.154408
810,0.037182,-0.392705,0.139392
811,0.085686,-0.303497,0.174192
812,0.101384,-0.219332,0.178612
813,0.013437,-0.080208,0.147636
814,0.010367,-0.172573,0.015994
815,0.062831,-0.175312,-0.054246
816,0.190085,-0.161644,-0.124029
817,0.44257,-0.009075,-0.142448
818,0.453331,-0.027773,-0.140149
819,0.583176,0.090466,-0.067064
820,0.393166,0.262037,-0.097739
821,0.431058,0.377185,-0.187842
822,0.405911,0.416268,-0.308322
823,0.385129,0.464445,-0.167147
824,0.310827,0.361637,-0.039346
825,0.274248,0.220427,0.018578
826,-0.075999,0.090692,0.166283
827,-0.174346,0.281441,0.348968
828,-0.159679,0.52743,0.478101
829,-0.399637,1.28763,0.401834
830,-0.404056,0.571784,0.140229
831,-0.284202,0.370142,0.009177
832,-0.059274,0.239506,0.090248
833,0.043962,0.308171,0.328391
834,0.102417,-0.016241,0.411148
835,0.047066,-0.271197,0.445473
836,0.030662,-0.337163,0.556894
837,-0.084908,-0.580473,0.705833
838,-0.147657,-0.670175,0.683503
839,-0.156329,-0.699211,0.617308
840,-0.194464,-0.752691,0.316381
841,-0.18756,-0.522947,0.129771
842,-0.159945,-0.358782,0.002767
843,-0.187462,-0.200993,-0.085206
844,-0.042885,0.155468,-0.253013
845,0.088419,0.893381,-0.3273
846,0.271746,1.364663,-0.482104
847,0.324691,0.532883,-0.341175
848,0.033339,0.005921,-0.31219
849,-0.026838,-0.184348,-0.08575
850,-0.081482,0.294645,0.471068
851,-0.17836,1.127503,0.621086
852,-0.152593,1.190597,0.519542
853,-0.259853,-0.380463,0.519952
854,-0.374993,-0.365707,0.495833
855,-0.021691,0.026422,0.647915
856,0.129615,0.15627,0.546733
857,0.040434,0.14875,0.510949
858,-0.045865,0.144385,0.448848
859,-0.113181,0.078912,0.359815
860,-0.009106,-0.044681,0.279242
861,0.035385,-0.156202,0.179736
862,0.066986,-0.298488,0.181359
863,0.103012,-0.222132,0.156131
864,0.074448,-0.22374,0.12591
865,0.094524,-0.133341,-0.008694
866,0.119064,-0.167199,-0.056657
867,0.156894,-0.174032,-0.084137
868,0.344732,-0.058799,-0.205679
869,0.432534,-0.036768,-0.157468
870,0.543678,-0.006513,-0.075024
871,0.31498,0.120624,0.044689
872,0.264099,0.253026,-0.025004
873,0.089919,0.506978,-0.195298
874,0.073248,0.568469,-0.274467
875,0.250708,0.45021,-0.232715
876,0.200446,0.329574,0.047005
877,0.180986,0.015639,0.136873
878,0.092947,-0.121291,0.114606
879,-0.098974,0.010485,0.163374
880,-0.105096,0.467265,0.343372
881,-0.193773,1.186283,0.246149
882,-0.42279,0.76646,0.13222
883,-0.348436,0.327065,0.014201
884,-0.313216,0.288811,0.051666
885,-0.100602,0.341152,0.285631
886,-0.072972,0.303646,0.419153
887,-0.032328,0.024358,0.472931
888,-0.069432,-0.338181,0.568855
889,-0.113025,-0.518471,0.594827
890,-0.16241,-0.624365,0.491873
891,-0.227129,-0.620531,0.457159
892,-0.231969,-0.622001,0.368756
893,-0.198412,-0.665735,0.258418
894,-0.172515,-0.523834,0.173061
895,-0.13799,-0.4667,0.111224
896,-0.102607,-0.363357,-0.024815
897,0.040559,-0.037582,-0.194769
898,0.189009,0.580763,-0.267113
899,0.196985,0.930249,-0.278512
900,0.404129,1.153852,-0.235565
901,-0.040987,0.08294,-0.227504
902,-0.443449,-0.576936,-0.280727
903,-0.187268,-0.079951,-0.133629
904,-0.112621,0.616141,0.264753
905,-0.164233,1.209969,0.387227
906,-0.296639,0.35997,0.315458
907,-0.083744,-0.544605,0.639879
908,-0.040084,-0.439722,0.771081
909,0.050999,-0.294548,0.826594
910,0.370859,0.309855,0.30083
911,0.272046,0.337033,0.300166
912,0.058004,0.312753,0.294358
913,-0.298805,0.084423,0.30771
914,-0.231531,-0.101224,0.255553
915,-0.175807,-0.250155,0.185849
916,0.010723,-0.354762,0.152361
917,0.07772,-0.272649,0.158762
918,0.108538,-0.156598,0.149879
919,0.029545,-0.196005,0.043172
920,0.079337,-0.304217,-0.062999
921,0.179562,-0.23887,-0.081539
922,0.300703,-0.228598,-0.125293
923,0.447074,-0.134309,-0.164536
924,0.413225,-0.091361,-0.078448
925,0.314977,-0.078696,0.026935
926,0.266458,-0.086268,0.028831
927,0.370475,0.180693,-0.059206
928,0.390582,0.447295,-0.274184
929,0.371377,0.577352,-0.286736
930,0.176652,0.598955,-0.045556
931,0.160495,0.450669,-0.117747
932,0.071906,0.277906,-0.038099
933,-0.236994,0.264293,0.396945
934,-0.381694,0.625635,0.40765
935,-0.535588,0.936246,0.382981
936,-0.299078,0.435399,0.133471
937,-0.152238,0.396196,0.002738
938,-0.01989,0.364118,0.048615
939,0.077615,0.357538,0.174092
940,0.054215,-0.017618,0.317691
941,0.000722,-0.165024,0.444322
942,-0.016241,-0.315062,0.542579
943,-0.101303,-0.581436,0.60945
944,-0.135453,-0.627867,0.601975
945,-0.231245,-0.705654,0.572779
946,-0.242937,-0.715369,0.445317
947,-0.226675,-0.709966,0.355106
948,-0.173208,-0.459746,0.083927
949,-0.19656,-0.311056,-0.06917
950,-0.129557,-0.031689,-0.346538
951,0.115436,0.598808,-0.446388
952,0.122677,1.110361,-0.480771
953,0.371093,0.899535,-0.347262
954,-0.146471,0.469769,-0.193099
955,0.029739,0.729301,-0.284284
956,0.344621,1.200337,0.286142
957,-0.295719,0.011687,0.618541
958,-0.510138,-0.653883,0.43692
959,-0.369999,-0.583469,0.578005
960,-0.199658,-0.670132,0.852786
961,0.129806,0.003856,0.653447
962,0.278866,0.449759,0.521873
963,0.368691,1.294077,0.290636
964,-0.142295,0.909204,0.315389
965,-0.307945,-0.006578,0.175309
966,-0.018375,-0.578656,0.167498
967,0.060565,-0.524941,0.202057
968,0.065073,-0.490542,0.184954
969,0.146495,-0.227632,0.276354
970,0.137794,-0.061444,0.240899
971,0.106034,-0.077963,0.141522
972,0.00986,-0.134997,-0.112938
973,0.07323,-0.192254,-0.15228
974,0.141526,-0.198953,-0.183612
975,0.351997,-0.058328,-0.163393
976,0.446191,0.043399,-0.105099
977,0.50995,0.082669,-0.03759
978,0.360467,0.151638,0.035244
979,0.348203,0.315395,-0.088009
980,0.287997,0.49092,-0.304365
981,0.268963,0.497434,-0.386835
982,0.186364,0.537641,-0.242079
983,0.240385,0.314957,0.114232
984,0.264894,0.026921,0.158009
985,0.033792,-0.06659,0.102295
986,-0.196359,0.354012,0.317987
987,-0.270811,0.923761,0.353632
988,-0.526655,0.989963,0.322366
989,-0.55059,0.607358,0.264098
990,-0.282021,0.318719,0.051416
991,-0.112993,0.256445,0.14872
992,-0.056149,0.277169,0.21816
993,0.061779,0.02887,0.391326
994,0.039009,-0.262326,0.4924
995,0.019425,-0.351319,0.583893
996,-0.072638,-0.616207,0.594384
997,-0.144267,-0.678102,0.57044
998,-0.184052,-0.714961,0.546647
999,-0.176288,-0.701493,0.474889
1000,-0.205212,-0.534209,0.237901
1001,-0.22888,-0.403866,0.11714
1002,-0.242986,-0.351844,0.029617
1003,0.119123,0.359996,-0.440045
1004,0.210387,0.745413,-0.49299
1005,0.175514,1.080919,-0.529471
1006,0.170215,0.25861,-0.313587
1007,-0.023315,-0.171992,-0.239613
1008,-0.099979,-0.590813,-0.069075
1009,-0.014731,-0.301686,0.139283
1010,-0.216404,0.031758,0.337889
1011,-0.10421,1.614685,0.268977
1012,-0.051839,0.517592,0.779806
1013,-0.115661,-0.144416,0.706807
1014,-0.132182,-0.052086,0.607206
1015,0.060977,0.006459,0.4985
1016,0.062396,-0.039239,0.461945
1017,-0.075255,0.064867,0.428269
1018,-0.186594,0.208934,0.420512
1019,-0.212332,0.193807,0.343456
1020,-0.031888,-0.067364,0.235152
1021,0.019156,-0.271864,0.112727
1022,0.028506,-0.336875,0.124246
1023,0.043095,-0.243569,0.143262
1024,0.004407,-0.099951,0.14373
1025,0.029868,-0.096392,0.062557
1026,0.205219,-0.208895,-0.035082
1027,0.335066,-0.247588,-0.096349
1028,0.432019,-0.178243,-0.182604
1029,0.474786,-0.063145,-0.13203
1030,0.511852,-0.010403,-0.01113
1031,0.257182,0.035145,-0.013888
1032,0.175119,0.227195,-0.089938
1033,0.192093,0.407834,-0.164251
1034,0.228086,0.420859,-0.194131
1035,0.318007,0.570198,-0.155346
1036,0.128584,0.52504,0.085269
1037,0.120958,0.397509,0.072157
1038,0.039045,0.034541,0.179717
1039,-0.184598,0.178533,0.104861
1040,-0.301463,0.302119,0.278449
1041,-0.513943,0.908339,0.277494
1042,-0.43784,0.562263,0.081217
1043,-0.210716,0.417023,-0.022014
1044,-0.030535,0.341718,0.111366
1045,0.059755,0.278558,0.262863
1046,0.063504,0.106191,0.333305
1047,-0.005017,-0.097734,0.397848
1048,-0.094421,-0.401301,0.638779
1049,-0.123634,-0.459127,0.645503
1050,-0.148611,-0.526217,0.601529
1051,-0.301448,-0.635337,0.503413
1052,-0.285982,-0.640158,0.50017
1053,-0.237104,-0.574124,0.25496
1054,-0.212987,-0.355152,-0.012706
1055,-0.213801,-0.372591,-0.040038
1056,-0.066304,-0.003547,-0.279579
1057,0.188305,0.708981,-0.378637
1058,0.153893,0.81211,-0.413611
1059,0.22409,0.562133,-0.345122
1060,-0.020486,-0.024978,-0.179606
1061,-0.204832,-0.234807,-0.082867
1062,-0.127025,0.255693,0.141573
1063,-0.342166,1.341095,0.26455
1064,-0.452808,0.972882,0.32816
1065,-0.563063,0.224325,0.309379
1066,-0.079023,-0.377995,0.873221
1067,-0.005659,-0.247652,0.864594
1068,0.115736,-0.132018,0.731854
1069,0.393126,0.453136,0.331774
1070,0.258006,0.535123,0.329844
1071,-0.192579,0.228121,0.35516
1072,-0.211309,-0.089834,0.2315
1073,-0.137085,-0.35887,0.158
1074,-0.062511,-0.420906,0.093473
1075,-0.03816,-0.331001,0.155419
1076,-0.020585,-0.163219,0.227876
1077,0.034088,-0.064786,0.207219
1078,0.060325,-0.117906,0.036507
1079,0.076821,-0.197075,-0.082359
1080,0.184638,-0.224741,-0.120071
1081,0.319167,-0.214681,-0.155726
1082,0.376839,-0.175744,-0.183265
1083,0.516765,0.071654,-0.099075
1084,0.343772,0.019406,-0.080086
1085,0.342145,0.14237,-0.08726
1086,0.254984,0.371352,-0.148594
1087,0.255019,0.401417,-0.226188
1088,0.287239,0.442262,-0.271302
1089,0.291734,0.574694,0.128664
1090,0.216589,0.276399,0.150488
1091,0.12043,0.135088,0.127329
1092,-0.243339,0.295115,0.073266
1093,-0.329342,0.940695,0.355535
1094,-0.407745,1.020994,0.363341
1095,-0.439542,0.823547,0.366287
1096,-0.147635,0.275449,0.094209
1097,-0.179826,0.300247,0.144222
1098,-0.052522,0.405283,0.312883
1099,-0.007692,0.144095,0.39888
1100,0.023255,-0.135001,0.452909
1101,-0.027233,-0.323877,0.545555
1102,-0.090664,-0.477446,0.549168
1103,-0.101263,-0.592591,0.462592
1104,-0.148243,-0.636295,0.527948
1105,-0.146222,-0.599444,0.498626
1106,-0.098605,-0.595362,0.40428
1107,-0.103821,-0.483296,0.262992
1108,-0.094422,-0.33971,0.066047
1109,-0.097014,-0.267766,-0.028874
1110,-0.069786,-0.136605,-0.158601
1111,0.076167,1.008191,-0.420755
1112,0.055051,1.171292,-0.43051
1113,0.248659,0.993398,-0.378
1114,-0.006136,-0.518231,-0.199103
1115,-0.127287,-0.835204,-0.128359
1116,-0.264901,-0.369919,0.300825
1117,-0.382026,0.471262,0.538567
1118,-0.269129,1.312743,0.305247
1119,-0.350896,0.834967,0.391034
1120,0.22132,-0.356589,0.512935
1121,0.044761,-0.117142,0.51315
1122,0.255097,-0.080048,0.645758
1123,0.228841,-0.13976,0.536372
1124,0.091396,0.083501,0.502084
1125,-0.139981,0.203898,0.484814
1126,-0.276868,0.090613,0.402902
1127,-0.166475,0.06373,0.289631
1128,-0.117114,-0.15172,0.119054
1129,-0.099876,-0.276036,0.068137
1130,-0.048358,-0.307977,0.157058
1131,-0.011066,-0.279916,0.192106
1132,0.079758,-0.191739,0.161246
1133,0.177092,-0.175786,0.040634
1134,0.297618,-0.154664,-0.056101
1135,0.416335,-0.078537,-0.136546
1136,0.497274,0.007305,-0.181296
1137,0.496224,0.182213,-0.197102
1138,0.339893,0.121453,-0.111703
1139,0.407401,0.17019,-0.062067
1140,0.320665,0.26548,-0.150106
1141,0.306669,0.3406,-0.292011
1142,0.236858,0.336312,-0.38189
1143,0.035475,0.275693,-0.137825
1144,0.082411,0.081,0.086093
1145,0.163728,-0.01666,0.282865
1146,-0.00132,0.068716,0.318233
1147,-0.063738,0.644369,0.447974
1148,-0.061148,1.046429,0.452079
1149,-0.490823,0.736737,0.186944
1150,-0.386144,0.455066,-0.034165
1151,-0.214546,0.332499,0.024083
1152,0.017594,0.256051,0.160366
1153,0.183208,0.090419,0.320128
1154,0.175669,-0.032449,0.356393
1155,0.144167,-0.125203,0.413906
1156,-0.059905,-0.478761,0.702496
1157,-0.086288,-0.522479,0.702998
1158,-0.1174,-0.563498,0.687189
1159,-0.263753,-0.596645,0.384901
1160,-0.226534,-0.549317,0.255372
1161,-0.220999,-0.420978,0.127552
1162,-0.234718,-0.3398,0.031835
1163,-0.212199,-0.147426,-0.078451
1164,0.020579,0.229731,-0.281381
1165,0.235177,0.665932,-0.366522
1166,0.267141,0.826165,-0.403985
1167,0.256755,0.116092,-0.281455
1168,-0.100994,-0.308035,-0.194741
1169,-0.119024,-0.233736,-0.147341
1170,0.01761,0.716619,0.438304
1171,-0.080167,1.730532,0.37787
1172,-0.263903,0.1685,0.429176
1173,-0.355573,-0.447303,0.449999
1174,-0.119661,-0.165623,0.641137
1175,0.153413,-0.078028,0.674332
1176,0.181802,0.072055,0.523299
1177,0.029743,0.345175,0.467216
1178,-0.079138,0.400898,0.416972
1179,-0.303661,0.184201,0.344129
1180,-0.133036,-0.160114,0.249728
1181,-0.080564,-0.295937,0.166665
1182,0.050842,-0.376762,0.151706
1183,0.083692,-0.281297,0.188396
1184,0.068035,-0.215483,0.174921
1185,0.074984,-0.152124,0.15929
1186,0.163196,-0.17966,0.016089
1187,0.255394,-0.221095,-0.078196
1188,0.366608,-0.228023,-0.174852
1189,0.468565,-0.107846,-0.209647
1190,0.540971,0.078715,-0.146338
1191,0.444799,0.016322,-0.045456
1192,0.22776,0.093808,-0.032782
1193,0.251508,0.195345,-0.081054
1194,0.244172,0.258118,-0.160069
1195,0.23758,0.514991,-0.152532
1196,0.199135,0.498471,-0.00159
1197,0.171276,0.404306,0.028863
1198,0.06844,0.235882,0.077473
1199,-0.123861,0.304871,0.116255
1200,-0.271754,0.423113,0.352695
1201,-0.641309,0.999135,0.371074
1202,-0.508023,0.504707,0.094187
1203,-0.226883,0.333707,-0.03026
1204,0.004716,0.415982,0.031133
1205,0.031976,0.371034,0.234563
1206,0.08478,0.042173,0.31064
1207,0.056171,-0.209499,0.468548
1208,0.016389,-0.345611,0.596919
1209,-0.105788,-0.569455,0.614047
1210,-0.179592,-0.626867,0.480606
1211,-0.189679,-0.641397,0.459001
1212,-0.171173,-0.648119,0.350616
1213,-0.109411,-0.597256,0.23077
1214,-0.122284,-0.545582,0.149927
1215,-0.130634,-0.40708,0.043663
1216,-0.110941,-0.212407,-0.084277
1217,-0.023987,-0.016773,-0.2293
1218,0.042926,0.871428,-0.49075
1219,0.171112,1.051338,-0.455859
1220,-0.056712,0.408506,-0.232375
1221,-0.216542,0.168698,-0.196098
1222,0.133496,0.875478,0.254608
1223,-0.135524,1.301998,0.515244
1224,-0.350179,-0.108216,0.49095
1225,-0.385939,-0.620001,0.559364
1226,-0.344201,-0.569301,0.670567
1227,0.016025,-0.328617,0.794296
1228,0.162447,-0.039156,0.552873
1229,0.214457,0.26086,0.460496
1230,-0.085576,0.830801,0.373799
1231,-0.276727,0.459785,0.311432
1232,-0.191289,0.153845,0.238164
1233,0.054192,-0.470137,0.099803
1234,0.042288,-0.501401,0.156732
1235,0.032531,-0.489548,0.160205
1236,0.068981,-0.132749,0.270137
1237,0.06552,-0.073651,0.120979
1238,0.08459,-0.049915,0.009134
1239,0.178346,-0.209407,-0.105969
1240,0.285891,-0.301327,-0.175983
1241,0.394548,-0.250315,-0.231658
1242,0.426037,-0.168023,-0.256342
1243,0.3771,-0.046002,-0.081338
1244,0.398387,0.068871,-0.009841
1245,0.436482,0.139702,0.020782
1246,0.191762,0.405321,-0.256493
1247,0.145104,0.524725,-0.289185
1248,0.190122,0.570216,0.082928
1249,0.140525,0.321622,0.16265
1250,0.063332,0.228465,0.218632
1251,-0.334491,0.307665,0.209955
1252,-0.531249,0.592843,0.378981
1253,-0.640243,0.859762,0.420503
1254,-0.497715,0.515454,0.182957
1255,-0.075232,0.390024,3.20E-05
1256,0.154348,0.430773,0.022335
1257,0.165542,0.448999,0.184861
1258,0.17007,0.124336,0.244174
1259,0.159331,0.016962,0.340913
1260,0.043486,-0.39224,0.694626
1261,-0.092704,-0.604404,0.685742
1262,-0.161195,-0.666267,0.639045
1263,-0.317551,-0.701558,0.546433
1264,-0.31049,-0.656103,0.484585
1265,-0.274019,-0.583251,0.278363
1266,-0.241864,-0.503915,0.076128
1267,-0.222096,-0.411489,-0.07476
1268,-0.26371,-0.334839,-0.130756
1269,-0.0085,0.15035,-0.444174
1270,0.18434,1.262219,-0.418334
1271,0.361296,1.188741,-0.351612
1272,0.377233,0.642724,-0.286964
1273,-0.136571,-0.290872,0.112007
1274,-0.133825,-0.292442,0.110019
1275,-0.143177,1.656007,0.510848
1276,-0.151286,1.325139,0.315761
1277,0.134128,-0.486125,0.596022
1278,-0.015416,-0.59734,0.687302
1279,0.024867,-0.349992,0.621821
1280,0.109441,-0.153095,0.520497
1281,0.01324,0.107173,0.498403
1282,-0.189283,0.41555,0.435381
1283,-0.313831,0.456209,0.353898
1284,-0.178934,0.129118,0.202807
1285,0.013717,-0.286557,0.099262
1286,0.005444,-0.46372,0.203149
1287,-0.09334,-0.408304,0.249325
1288,-0.09812,-0.205293,0.251449
1289,-0.077084,-0.145546,0.13959
1290,0.056459,-0.168932,0.013917
1291,0.251944,-0.196015,-0.149453
1292,0.319829,-0.157273,-0.203505
1293,0.497207,0.138178,-0.204615
1294,0.466755,0.057431,-0.090997
1295,0.370189,0.081362,0.001569
1296,0.503331,0.218085,-0.0694
1297,0.38664,0.324051,-0.333984
1298,0.411841,0.446519,-0.392636
1299,0.218067,0.473442,-0.051906
1300,0.12662,0.162242,0.120338
1301,0.14995,0.068,0.282837
1302,-0.150057,0.274619,0.168597
1303,-0.333681,0.815211,0.437729
1304,-0.44643,1.098892,0.472516
1305,-0.594782,0.597944,0.216451
1306,-0.372355,0.455799,0.047322
1307,-0.284393,0.419015,0.100802
1308,0.040842,0.435263,0.249846
1309,0.093681,0.25508,0.337158
1310,0.065353,0.110582,0.351895
1311,-0.053395,-0.297147,0.614237
1312,-0.111478,-0.539685,0.676345
1313,-0.134242,-0.615891,0.663926
1314,-0.240051,-0.714817,0.526396
1315,-0.238435,-0.720012,0.462341
1316,-0.202157,-0.711738,0.368672
1317,-0.184791,-0.531425,0.094856
1318,-0.185081,-0.34671,0.001226
1319,-0.184233,-0.366141,-0.030943
1320,0.208173,0.416435,-0.224046
1321,0.229354,1.489262,-0.350818
1322,0.232051,1.495628,-0.338707
1323,-0.029472,0.239173,-0.227466
1324,-0.236831,-0.219278,-0.205421
1325,-0.22504,-0.213816,-0.193898
1326,-0.140722,0.680749,0.512239
1327,-0.336762,0.428288,0.376729
1328,-0.272842,-0.048179,0.460089
1329,-0.208282,-0.409971,0.628175
1330,-0.112795,-0.248948,0.804655
1331,0.112942,0.003774,0.595624
1332,0.34355,0.399961,0.379701
1333,0.032227,0.428651,0.399658
1334,-0.092916,0.327173,0.379055
1335,-0.229516,0.066431,0.318487
1336,-0.095856,-0.287812,0.208104
1337,-0.043565,-0.371299,0.162087
1338,0.0513,-0.323294,0.176344
1339,0.092021,-0.153985,0.181209
1340,0.095989,-0.085292,0.17159
1341,0.062504,-0.152067,0.030935
1342,0.044458,-0.190176,-0.075863
1343,0.089324,-0.205321,-0.093041
1344,0.328292,-0.161849,-0.156353
1345,0.417628,-0.069903,-0.139058
1346,0.540807,0.102862,-0.056686
1347,0.372243,0.062586,0.006077
1348,0.281485,0.213193,-0.050275
1349,0.252965,0.259774,-0.143261
1350,0.122767,0.36801,-0.353264
1351,0.181723,0.364341,-0.345446
1352,0.168561,0.306289,-0.026087
1353,0.169696,0.076088,0.084915
1354,0.297114,-0.000608,0.283426
1355,-0.050289,0.252013,0.209139
1356,-0.082566,0.883304,0.446442
1357,-0.267957,1.205566,0.383447
1358,-0.428423,0.948897,0.355947
1359,-0.219891,0.407089,-0.030817
1360,-0.088001,0.256961,0.107544
1361,-0.11711,0.279095,0.146524
1362,0.066964,0.081914,0.413962
1363,0.021039,-0.221053,0.47922
1364,0.021539,-0.202409,0.509213
1365,-0.03964,-0.528188,0.707495
1366,-0.057419,-0.665846,0.728283
1367,-0.080939,-0.719641,0.718637
1368,-0.241018,-0.721618,0.487018
1369,-0.239822,-0.637579,0.39116
1370,-0.247644,-0.52409,0.273621
1371,-0.261357,-0.374147,0.048207
1372,-0.3103,-0.166559,-0.126722
1373,-0.087967,0.310172,-0.303895
1374,0.128985,1.035467,-0.483393
1375,0.118882,1.258041,-0.470999
1376,0.357996,1.118076,-0.349545
1377,-0.222638,-0.274556,-0.152865
1378,-0.023322,0.047911,0.032102
1379,-0.042551,0.312981,0.256675
1380,-0.146115,0.617228,0.391458
1381,-0.194826,0.104919,0.504991
1382,-0.19628,-0.015111,0.467884
1383,0.065097,0.017762,0.786046
1384,0.204645,0.237022,0.594617
1385,0.286843,0.269483,0.481455
1386,0.05416,0.158125,0.439783
1387,-0.169188,0.107865,0.434257
1388,-0.226261,0.079559,0.395071
1389,-0.339287,-0.119464,0.275934
1390,-0.159666,-0.22227,0.218608
1391,-0.082459,-0.251713,0.170655
1392,0.017298,-0.1733,0.23118
1393,0.054798,-0.0957,0.267078
1394,0.098057,-0.088347,0.25968
1395,0.119587,-0.194091,0.130462
1396,0.146665,-0.2297,-0.010524
1397,0.197132,-0.261735,-0.079349
1398,0.350499,-0.231106,-0.254585
1399,0.465276,-0.026715,-0.211081
1400,0.581858,0.06052,-0.126647
1401,0.44394,-0.036511,0.047681
1402,0.254944,0.090603,-0.063601
1403,0.209048,0.120806,-0.166333
1404,0.188654,0.31781,-0.312595
1405,0.319984,0.393951,-0.2011
1406,0.320894,0.392869,-0.184952
1407,0.219425,0.25331,0.029592
1408,0.174975,0.067779,0.152159
1409,0.157391,0.071918,0.214192
1410,-0.225364,0.679243,0.425141
1411,-0.396365,1.28417,0.419196
1412,-0.53891,1.216855,0.411461
1413,-0.36452,0.500128,-0.030068
1414,-0.161891,0.395639,-0.009352
1415,-0.067431,0.373536,0.098018
1416,0.028476,0.217972,0.332163
1417,0.062051,-0.082608,0.411407
1418,0.027042,-0.344131,0.603486
1419,-0.031782,-0.538117,0.682052
1420,-0.163493,-0.718276,0.568991
1421,-0.187154,-0.735229,0.567819
1422,-0.219353,-0.734415,0.518097
1423,-0.204262,-0.569881,0.220862
1424,-0.18338,-0.512618,0.129967
1425,-0.220169,-0.322442,0.000114
1426,-0.091233,-0.042351,-0.231423
1427,0.049672,0.218297,-0.330552
1428,0.139146,1.389979,-0.460146
1429,0.336518,0.884773,-0.279292
1430,0.139595,0.314001,-0.238811
1431,-0.24661,-0.552418,-0.092934
1432,-0.085983,-0.098456,0.142764
1433,-0.312676,0.714942,0.459839
1434,-0.06411,1.424929,0.385969
1435,-0.072236,0.258819,0.606552
1436,-0.150581,-0.263857,0.654751
1437,0.13672,0.010969,0.634987
1438,0.21681,0.028186,0.566544
1439,0.230148,-0.101425,0.512027
1440,-0.004181,0.151576,0.477172
1441,-0.154102,0.261504,0.447381
1442,-0.210514,0.262627,0.408511
1443,-0.095522,-0.036409,0.239349
1444,-0.020441,-0.248426,0.12244
1445,-0.013261,-0.309934,0.101342
1446,-0.025463,-0.298306,0.215814
1447,0.005202,-0.187697,0.247755
1448,0.011959,-0.15365,0.201918
1449,0.120301,-0.179262,0.002535
1450,0.240774,-0.21518,-0.090285
1451,0.263095,-0.217251,-0.118922
1452,0.485198,0.049365,-0.216554
1453,0.55396,0.038961,-0.016027
1454,0.56892,0.039421,-0.029967
1455,0.371383,0.305435,-0.106685
1456,0.293199,0.329028,-0.203264
1457,0.212028,0.378407,-0.282892
1458,0.206986,0.398783,-0.358393
1459,0.168282,0.227325,0.028915
1460,0.136324,0.082405,0.105985
1461,0.052215,0.032737,0.145671
1462,-0.133281,0.260162,0.171356
1463,-0.220599,0.881441,0.463245
1464,-0.456553,1.199257,0.43411
1465,-0.42309,0.495199,0.020753
1466,-0.453991,0.517054,0.070424
1467,-0.137857,0.364084,0.032413
1468,0.052159,0.35474,0.317594
1469,0.061352,0.224352,0.371237
1470,0.01894,-0.226701,0.541544
1471,-0.065712,-0.440599,0.693012
1472,-0.082308,-0.519112,0.7074
1473,-0.199058,-0.642629,0.557217
1474,-0.217747,-0.651741,0.52814
1475,-0.228933,-0.618184,0.406674
1476,-0.21182,-0.403342,0.242786
1477,-0.176417,-0.401433,0.19584
1478,-0.136422,-0.431274,0.153886
1479,-0.126463,-0.257215,-0.045043
1480,0.110299,0.275797,-0.303454
1481,0.192006,0.719545,-0.363846
1482,0.311962,1.555557,-0.398023
1483,0.265705,0.503944,-0.261718
1484,-0.04441,-0.152503,-0.208314
1485,-0.133798,-0.617858,-0.074249
1486,-0.076176,0.106303,0.313657
1487,-0.18146,0.381577,0.594748
1488,-0.33475,0.640071,0.387358
1489,-0.113225,-0.079963,0.535648
1490,-0.145657,-0.3993,0.583035
1491,0.010368,-0.032987,0.66904
1492,0.194612,0.046446,0.545706
1493,0.210012,0.019328,0.422175
1494,-0.02527,0.160892,0.421564
1495,-0.181794,0.230283,0.372681
1496,-0.207464,0.17761,0.319939
1497,-0.066409,-0.154114,0.199839
1498,-0.013914,-0.297703,0.119148
1499,0.038267,-0.317099,0.153619
1500,0.095996,-0.206967,0.190333
1501,0.103595,-0.164287,0.180428
1502,0.058607,-0.184258,0.075859
1503,0.062447,-0.221593,-0.046644
1504,0.157671,-0.201844,-0.061915
1505,0.261583,-0.130668,-0.145153
1506,0.328886,-0.037424,-0.145367
1507,0.399743,-0.051068,-0.084106
1508,0.260505,-0.078153,0.037847
1509,0.377437,0.162339,0.078745
1510,0.293183,0.491873,-0.229065
1511,0.235093,0.502751,-0.297382
1512,0.199998,0.476484,-0.222404
1513,0.162763,0.333747,0.047215
1514,0.226362,0.184689,0.158691
1515,0.009169,0.029635,0.125286
1516,-0.163564,0.227073,0.185213
1517,-0.235163,0.724391,0.477126
1518,-0.561713,0.944182,0.263718
1519,-0.472557,0.406919,0.038758
1520,-0.456,0.378266,0.026175
1521,-0.210801,0.269379,0.173878
1522,-0.075399,0.294786,0.356369
1523,-0.01659,0.183689,0.42511
1524,-0.020782,-0.325925,0.515969
1525,-0.065515,-0.386398,0.589036
1526,-0.093195,-0.46288,0.612813
1527,-0.220392,-0.586415,0.491718
1528,-0.231183,-0.586995,0.475057
1529,-0.231151,-0.596342,0.438535
1530,-0.252576,-0.374655,0.308592
1531,-0.165483,-0.363676,0.225972
1532,-0.100252,-0.366255,0.069645
1533,0.047566,0.13064,-0.41434
1534,0.156162,0.390438,-0.513196
1535,0.145986,0.886025,-0.528784
1536,0.269125,0.777675,-0.395057
1537,0.088699,0.113694,-0.155419
1538,-0.195543,-0.494701,-0.072309
1539,-0.156642,-0.269145,0.16463
1540,-0.343075,0.517029,0.476713
1541,-0.316842,1.160161,0.370384
1542,-0.06489,0.476098,0.442708
1543,-0.072399,-0.379832,0.640464
1544,-0.053573,-0.107951,0.653155
1545,0.135599,-0.024866,0.56427
1546,0.138563,0.03729,0.460319
1547,-0.027494,0.285825,0.449009
1548,-0.273139,0.314719,0.440297
1549,-0.377193,0.151145,0.443151
1550,-0.158517,-0.033279,0.321436
1551,-0.067449,-0.201815,0.192538
1552,-0.114067,-0.35348,0.196048
1553,-0.101954,-0.34242,0.222827
1554,-0.047376,-0.267269,0.301867
1555,0.061851,-0.151977,0.125127
1556,0.11154,-0.136567,0.013758
1557,0.232335,-0.15274,-0.116812
1558,0.373293,-0.158176,-0.212492
1559,0.433775,-0.103132,-0.244633
1560,0.54198,0.07052,-0.165344
1561,0.387186,0.190524,0.004135
1562,0.297381,0.259844,-0.066318
1563,0.16258,0.383939,-0.205929
1564,0.025653,0.40029,-0.369198
1565,0.109075,0.409774,-0.337992
1566,0.173077,0.183497,0.052753
1567,0.139264,-0.041844,0.14788
1568,0.093228,-0.05398,0.185876
1569,-0.260693,0.44588,0.369719
1570,-0.119666,1.155605,0.473004
1571,-0.223939,1.199235,0.456945
1572,-0.205279,0.501461,0.113132
1573,-0.046502,0.430543,-0.005627
1574,0.073538,0.426593,0.105388
1575,0.03383,0.314137,0.236284
1576,-0.015624,-0.008262,0.359485
1577,-0.013665,-0.217982,0.502457
1578,-0.065966,-0.46067,0.659749
1579,-0.183663,-0.563441,0.688255
1580,-0.217414,-0.578312,0.682764
1581,-0.263806,-0.629103,0.6029
1582,-0.224725,-0.620537,0.455305
1583,-0.19478,-0.602126,0.348802
1584,-0.2176,-0.325615,0.083901
1585,-0.236606,-0.168067,-0.015625
1586,-0.111602,0.136404,-0.18576
1587,0.028301,0.610814,-0.284437
1588,0.175469,0.785893,-0.386134
1589,0.176073,0.790763,-0.377575
1590,0.074125,-0.189859,-0.235861
1591,-0.02823,-0.238954,-0.079037
1592,-0.020377,-0.237189,-0.074289
1593,-0.124834,0.846663,0.513077
1594,-0.00973,1.64683,0.385581
1595,-0.237842,0.068254,0.484963
1596,-0.215553,-0.371766,0.565847
1597,0.04834,-0.185267,0.679443
1598,0.152906,-0.099034,0.635902
1599,0.182055,0.215524,0.535325
1600,-0.065219,0.414016,0.501159
1601,-0.209072,0.403596,0.435606
1602,-0.396831,0.188906,0.297463
1603,-0.054008,-0.22666,0.155404
1604,-0.009239,-0.307911,0.138792
1605,-0.011511,-0.361528,0.154566
1606,0.054179,-0.229293,0.234227
1607,0.072795,-0.181392,0.209743
1608,0.048453,-0.160816,0.061288
1609,0.142424,-0.229937,0.009972
1610,0.211177,-0.242795,-0.045705
1611,0.365272,-0.172596,-0.185346
1612,0.479835,0.0503,-0.174113
1613,0.473922,0.141945,-0.058904
1614,0.316133,0.125964,-0.015982
1615,0.242494,0.245663,-0.08355
1616,0.180912,0.35291,-0.210105
1617,0.198415,0.451309,-0.299129
1618,0.215624,0.494868,-0.087349
1619,0.122857,0.318868,0.072982
1620,0.089942,0.073876,0.244434
1621,-0.146511,0.084652,0.132217
1622,-0.272552,0.246831,0.282167
1623,-0.41966,1.036871,0.437935
1624,-0.556992,0.898964,0.335028
1625,-0.304902,0.512131,0.04356
1626,-0.065137,0.388715,0.001527
1627,0.036308,0.495156,0.129156
1628,0.067092,0.340104,0.264227
1629,0.070493,-0.182362,0.460521
1630,0.055328,-0.296415,0.594252
1631,0.042573,-0.420983,0.703274
1632,-0.116759,-0.663456,0.679355
1633,-0.277169,-0.739895,0.541576
1634,-0.252625,-0.742509,0.543469
1635,-0.25241,-0.569985,0.301485
1636,-0.243033,-0.437191,0.177186
1637,-0.248463,-0.3846,0.130106
1638,-0.210186,-0.132994,0.007118
1639,0.019124,0.37603,-0.289143
1640,0.075206,0.776331,-0.39888
1641,0.17757,1.348295,-0.527633
1642,0.065971,0.097154,-0.320627
1643,0.063405,0.102555,-0.312087
1644,0.028,-0.134409,-0.087663
1645,0.034244,1.211713,0.402443
1646,0.020415,1.407528,0.373548
1647,-0.203037,0.103,0.578273
1648,-0.298965,-0.448007,0.62748
1649,-0.123778,-0.364285,0.727378
1650,0.187683,-0.211873,0.722405
1651,0.202693,0.354959,0.538945
1652,0.078158,0.505918,0.52184
1653,-0.515949,0.285079,0.408527
1654,-0.441404,0.077304,0.301932
1655,-0.312157,-0.13601,0.204881
1656,-0.005261,-0.382443,0.244155
1657,-0.004274,-0.354416,0.257511
1658,0.008875,-0.273912,0.278905
1659,0.068552,-0.099891,0.290725
1660,0.072281,-0.114318,0.198535
1661,0.144742,-0.225613,-0.000839
1662,0.258825,-0.240021,-0.111335
1663,0.40311,-0.198024,-0.210744
1664,0.555782,0.018097,-0.195756
1665,0.525113,0.017291,-0.099508
1666,0.390142,0.068801,-0.025866
1667,0.319814,0.292384,-0.065291
1668,0.141609,0.463867,-0.222416
1669,0.054127,0.474054,-0.270049
1670,0.134546,0.387213,-0.205776
1671,0.14194,0.244444,0.073551
1672,0.088113,0.000306,0.119382
1673,0.00287,0.013311,0.150331
1674,-0.297223,0.333105,0.35839
1675,-0.247475,1.010421,0.514823
1676,-0.414286,1.035637,0.387033
1677,-0.315478,0.500488,0.200597
1678,-0.087025,0.421232,0.034804
1679,0.137907,0.457635,0.07155
1680,0.093389,0.45469,0.217933
1681,0.071252,-0.092485,0.410503
1682,0.086806,-0.23599,0.49314
1683,0.03242,-0.428591,0.648314
1684,-0.185851,-0.583755,0.600492
1685,-0.212245,-0.615122,0.582226
1686,-0.221834,-0.643828,0.564928
1687,-0.171715,-0.643471,0.415422
1688,-0.147438,-0.657465,0.400136
1689,-0.144354,-0.365096,0.158827
1690,-0.170496,-0.211328,0.07865
1691,-0.084318,0.14351,-0.221053
1692,0.101945,1.067934,-0.379639
1693,0.266996,1.016938,-0.382284
1694,0.246908,0.472777,-0.342538
1695,-0.144037,-0.464276,-0.141503
1696,0.070746,-0.014522,0.09156
1697,0.047782,0.318291,0.39243
1698,0.039206,1.694123,0.473725
1699,-0.200936,-0.025739,0.454724
1700,-0.251026,-0.457756,0.466653
1701,-0.234876,-0.378249,0.562266
1702,0.204227,-0.077862,0.729989
1703,0.229435,-0.052885,0.653518
1704,0.137972,0.259305,0.591581
1705,-0.312066,0.379999,0.428209
1706,-0.404627,0.308053,0.341295
1707,-0.011075,-0.29049,0.146076
1708,0.038437,-0.388054,0.138281
1709,0.088734,-0.416396,0.163898
1710,0.090579,-0.227673,0.248843
1711,0.10128,-0.154675,0.213288
1712,0.04794,-0.106471,0.093286
1713,0.142735,-0.170882,0.027545
1714,0.240223,-0.202374,-0.027354
1715,0.274694,-0.232219,-0.096323
1716,0.331712,-0.090921,-0.159609
1717,0.406715,-0.01001,-0.128423
1718,0.281646,-0.011713,0.077894
1719,0.396926,0.22748,0.033391
1720,0.237265,0.388235,-0.247437
1721,0.15332,0.487924,-0.335545
1722,0.091713,0.498023,-0.062665
1723,0.103087,0.299081,0.042849
1724,0.196182,0.116068,0.248552
1725,-0.056228,0.146869,0.120793
1726,-0.267803,0.464348,0.427207
1727,-0.455953,1.002353,0.383448
1728,-0.614145,0.885807,0.274923
1729,-0.397564,0.473082,0.004122
1730,-0.162715,0.374334,0.013952
1731,0.015622,0.395221,0.175254
1732,0.077192,0.263055,0.33767
1733,0.06203,-0.022228,0.408107
1734,0.02254,-0.274651,0.57456
1735,-0.141945,-0.550626,0.694374
1736,-0.174548,-0.606397,0.667182
1737,-0.247836,-0.682863,0.537336
1738,-0.279618,-0.661701,0.452386
1739,-0.221629,-0.642089,0.379284
1740,-0.200534,-0.513745,0.155387
1741,-0.204583,-0.350112,0.036617
1742,-0.194137,-0.290092,-0.009976
1743,0.030516,0.013217,-0.186296
1744,0.260203,1.131485,-0.355617
1745,0.225225,1.417514,-0.378524
1746,0.282853,0.829946,-0.24677
1747,-0.325414,0.009848,-0.227372
1748,-0.164076,0.137506,-0.115723
1749,-0.124314,0.924632,0.480793
1750,-0.34172,0.248968,0.410237
1751,-0.20661,-0.498132,0.526601
1752,-0.128377,-0.516492,0.846814
1753,-0.018423,-0.416606,0.964317
1754,0.196959,-0.165018,0.776691
1755,0.313061,0.391132,0.435139
1756,-0.13955,0.600931,0.369763
1757,-0.297902,0.424639,0.358426
1758,-0.311819,0.063257,0.317036
1759,-0.058192,-0.408786,0.190114
1760,-0.056676,-0.453055,0.18009
1761,-0.047456,-0.360779,0.273839
1762,0.008871,-0.106118,0.298283
1763,0.009645,-0.043176,0.240007
1764,0.101162,-0.061265,-0.058538
1765,0.132495,-0.096997,-0.141885
1766,0.219347,-0.151311,-0.169664
1767,0.445809,-0.101686,-0.068558
1768,0.460686,-0.058334,-0.075283
1769,0.567117,0.046159,0.014474
1770,0.310405,0.194285,0.032163
1771,0.253093,0.377988,-0.127578
1772,0.215056,0.421251,-0.211261
1773,0.146028,0.414637,-0.394377
1774,0.09088,0.340749,-0.089133
1775,0.145094,0.124133,0.013951
1776,0.220707,-0.111089,0.315767
1777,0.064388,0.089859,0.2066
1778,-0.126111,0.648883,0.460526
1779,-0.27318,1.252463,0.338512
1780,-0.489699,0.762619,0.207784
1781,-0.443923,0.532167,0.083949
1782,-0.158734,0.379579,0.062265
1783,-0.015601,0.400683,0.332683
1784,0.100372,0.196998,0.425796
1785,0.09112,-0.108565,0.4879
1786,0.036415,-0.318553,0.679138
1787,-0.040012,-0.511288,0.728846
1788,-0.154099,-0.609065,0.639275
1789,-0.265604,-0.637556,0.594054
1790,-0.307446,-0.621881,0.533484
1791,-0.283775,-0.556412,0.344409
1792,-0.261601,-0.411393,0.178863
1793,-0.259417,-0.389725,0.156795
1794,-0.248069,-0.235627,0.078664
1795,0.158897,0.587941,-0.346092
1796,0.221538,1.051332,-0.400538
1797,0.274719,1.598597,-0.472241
1798,-0.05302,-0.078364,-0.360603
1799,-0.20185,-0.364822,-0.259718
1800,0.070482,-0.204057,0.058065
1801,-0.038439,1.099244,0.771363
1802,0.015412,1.456972,0.693662
1803,-0.22409,0.227327,0.477008
1804,-0.224874,-0.563585,0.444776
1805,-0.175652,-0.421097,0.573195
1806,0.02059,-0.195592,0.747881
1807,0.077382,0.175159,0.504761
1808,-0.008374,0.248535,0.435676
1809,-0.248479,0.306837,0.325535
1810,-0.058895,0.055369,0.268445
1811,0.019041,-0.084582,0.186853
1812,0.035796,-0.343826,0.254127
1813,0.051602,-0.300751,0.250958
1814,0.057451,-0.233527,0.217009
1815,-0.01049,-0.081988,0.152512
1816,0.02827,-0.150162,0.025303
1817,0.085598,-0.197294,-0.02651
1818,0.206062,-0.195997,-0.064932
1819,0.273013,-0.109103,-0.089367
1820,0.418393,0.030841,-0.048637
1821,0.31118,0.051389,0.058761
1822,0.245582,0.103772,0.059475
1823,0.305241,0.27108,-0.045483
1824,0.343872,0.39035,-0.341411
1825,0.307183,0.35434,-0.32414
1826,0.294136,0.443409,-0.100187
1827,0.125879,0.050498,0.106851
1828,0.122592,-0.045897,0.273081
1829,0.00776,0.064423,0.237836
1830,-0.261439,0.79808,0.400406
1831,-0.490492,1.2635,0.400293
1832,-0.575876,0.969775,0.352028
1833,-0.406406,0.440847,0.011099
1834,-0.279899,0.369321,0.148163
1835,-0.122338,0.354648,0.311694
1836,-0.009436,0.226116,0.425068
1837,-0.024091,-0.054124,0.485821
1838,-0.098398,-0.285402,0.608681
1839,-0.136434,-0.480696,0.650296
1840,-0.172689,-0.574695,0.559383
1841,-0.201614,-0.62624,0.470523
1842,-0.20066,-0.621547,0.395203
1843,-0.141719,-0.567708,0.262786
1844,-0.116496,-0.472182,0.133421
1845,-0.057905,-0.439474,0.051227
1846,-0.088785,-0.318059,-0.00151
1847,-0.005184,0.11293,-0.197981
1848,0.090145,0.938578,-0.282881
1849,0.070729,1.635944,-0.42013
1850,0.1273,0.63414,-0.231567
1851,-0.406733,-0.435405,-0.118803
1852,-0.191995,0.204105,0.206151
1853,-0.180887,0.521656,0.438657
1854,-0.154794,1.019843,0.427151
1855,0.029146,-0.187367,0.586368
1856,-0.044293,-0.378693,0.649368
1857,-0.010902,-0.248249,0.794228
1858,0.357648,-0.000171,0.496389
1859,0.362218,0.118941,0.368009
1860,0.240225,0.265387,0.353583
1861,-0.090428,0.300497,0.413825
1862,-0.154564,0.233658,0.379114
1863,-0.203654,-0.041214,0.261864
1864,-0.094908,-0.322848,0.150816
1865,-0.064402,-0.345358,0.143196
1866,-0.051484,-0.204501,0.243558
1867,-0.041078,-0.16647,0.226808
1868,-0.023201,-0.165135,0.200924
1869,0.0741,-0.158394,0.079202
1870,0.129917,-0.150052,0.039426
1871,0.281086,-0.039871,-0.055143
1872,0.398263,0.0522,-0.05662
1873,0.414763,-0.014982,-0.014015
1874,0.423137,-0.022021,0.029719
1875,0.440299,0.143905,-0.029189
1876,0.518028,0.350086,-0.16049
1877,0.419101,0.486475,-0.255246
1878,0.260811,0.603096,-0.153766
1879,0.24882,0.602884,-0.131608
1880,0.155111,0.277494,0.203373
1881,-0.010846,-0.049473,0.236296
1882,-0.230661,0.237392,0.283097
1883,-0.402087,0.757244,0.461284
1884,-0.649369,1.114944,0.458798
1885,-0.579795,0.482833,0.168227
1886,-0.395024,0.390754,0.067144
1887,-0.183884,0.292628,0.119727
1888,0.023761,0.336249,0.315878
1889,0.072942,0.265683,0.393558
1890,0.076234,-0.068828,0.443307
1891,-0.111197,-0.407029,0.65771
1892,-0.121191,-0.491032,0.660284
1893,-0.155656,-0.612969,0.589234
1894,-0.201148,-0.643111,0.497087
1895,-0.184944,-0.622973,0.429401
1896,-0.175817,-0.393704,0.208376
1897,-0.172119,-0.329698,0.112576
1898,-0.172703,-0.318711,0.069007
1899,-0.161257,-0.115457,-0.140231
1900,0.113374,0.731217,-0.376179
1901,0.111031,1.082639,-0.439849
1902,0.294906,1.134437,-0.353654
1903,-0.078995,-0.283877,-0.100883
1904,-0.192993,-0.48226,-0.040907
1905,-0.081719,-0.143613,0.15815
1906,-0.229923,1.015839,0.501869
1907,-0.060524,1.478959,0.376968
1908,-0.048786,0.422299,0.64306
1909,-0.227402,-0.211421,0.541141
1910,-0.110432,-0.131057,0.60206
1911,0.209873,0.001651,0.587515
1912,0.20562,-0.049062,0.531952
1913,-0.035568,0.329071,0.448331
1914,-0.184853,0.329903,0.403512
1915,-0.189238,0.103634,0.319605
1916,-0.08778,-0.204827,0.227264
1917,-0.05436,-0.355848,0.19963
1918,-0.017164,-0.317329,0.209046
1919,-0.020655,-0.16118,0.189977
1920,-0.048254,-0.049628,0.151059
1921,0.00368,-0.106217,0.146188
1922,0.11961,-0.19851,0.059912
1923,0.220265,-0.232469,-0.031089
1924,0.3203,-0.19665,-0.132546
1925,0.459259,-0.029519,-0.04475
1926,0.465451,-0.007173,0.108995
1927,0.342359,0.00141,0.053121
1928,0.272165,0.07541,0.002602
1929,0.205145,0.348327,-0.148379
1930,0.303093,0.445395,-0.254572
1931,0.282804,0.387133,-0.2662
1932,0.218664,0.389956,0.025744
1933,0.159482,0.068273,0.149884
1934,0.032598,0.042074,0.199991
1935,-0.222242,0.401421,0.432434
1936,-0.353202,1.082305,0.437044
1937,-0.501766,1.170641,0.459121
1938,-0.437085,0.427006,0.035431
1939,-0.314399,0.36824,0.042346
1940,-0.354926,0.393851,0.081153
1941,-0.077356,0.352212,0.284767
1942,0.04876,0.024638,0.415818
1943,0.036795,0.05092,0.450121
1944,-0.041167,-0.32907,0.613108
1945,-0.115442,-0.556393,0.64618
1946,-0.132753,-0.599709,0.606916
1947,-0.204923,-0.6272,0.552452
1948,-0.219198,-0.505963,0.365306
1949,-0.208291,-0.420756,0.283004
1950,-0.172149,-0.340562,0.156243
1951,-0.155429,-0.226524,0.013339
1952,-0.145148,-0.115675,-0.081698
1953,0.042179,0.332948,-0.252038
1954,0.190073,1.126973,-0.421809
1955,0.211798,1.027072,-0.390106
1956,-0.111197,-0.088877,-0.201063
1957,-0.234699,-0.316749,-0.098275
1958,-0.088591,-0.148398,0.00029
1959,-0.198894,0.54991,0.52484
1960,-0.223132,0.847283,0.448947
1961,-0.346976,0.348327,0.486472
1962,-0.149491,-0.244633,0.643169
1963,-0.069981,-0.162941,0.778302
1964,0.078895,-0.117826,0.735962
1965,0.263743,0.071985,0.469535
1966,0.112677,0.237563,0.409043
1967,0.009202,0.264976,0.367586
1968,-0.222418,0.088308,0.303117
1969,-0.161409,-0.05707,0.261523
1970,-0.096249,-0.184888,0.19788
1971,0.007072,-0.323618,0.183973
1972,0.035471,-0.222622,0.218654
1973,0.036052,-0.172366,0.196539
1974,0.014504,-0.071204,0.157016
1975,0.050613,-0.157122,0.110141
1976,0.081358,-0.194754,0.049065
1977,0.185845,-0.203537,-0.088731
1978,0.293594,-0.090029,-0.085039
1979,0.313552,-0.092773,-0.107069
1980,0.410313,0.016563,0.10859
1981,0.19836,0.059068,0.081207
1982,0.116922,0.178986,-0.028929
1983,0.11333,0.378479,-0.181215
1984,0.242467,0.427176,-0.313401
1985,0.27046,0.414619,-0.149496
1986,0.322354,0.355142,0.096001
1987,0.188935,-0.013376,0.208575
1988,0.102359,0.042879,0.195913
1989,-0.244308,0.285603,0.247672
1990,-0.391646,1.013455,0.40521
1991,-0.48855,1.080087,0.425079
1992,-0.422271,0.519552,0.19749
1993,-0.161729,0.37625,0.023409
1994,-0.084899,0.379139,0.116586
1995,-0.006511,0.44374,0.265687
1996,0.005527,0.101302,0.37429
1997,0.001026,-0.050411,0.450741
1998,-0.113461,-0.340065,0.676425
1999,-0.126619,-0.44285,0.667959
2000,-0.218488,-0.612433,0.600994
2001,-0.256177,-0.632329,0.572264
2002,-0.242869,-0.630109,0.509586
2003,-0.205557,-0.466046,0.23005
2004,-0.195925,-0.344074,0.111534
2005,-0.215577,-0.226803,0.01883
2006,-0.186834,-0.096132,-0.082232
2007,0.177444,0.739071,-0.315303
2008,0.194339,1.308436,-0.35976
2009,0.265856,0.558223,-0.258951
2010,-0.074688,-0.291625,-0.149553
2011,-0.161806,-0.49323,0.003895
2012,-0.157372,-0.013672,0.344377
2013,-0.213122,1.255231,0.279994
2014,-0.193817,1.400792,0.279338
2015,-0.354651,0.805551,0.360801
2016,-0.179918,-0.32543,0.591517
2017,-0.039682,-0.156326,0.741738
2018,0.077847,-0.092479,0.730255
2019,0.247822,0.143497,0.501803
2020,0.066077,0.374029,0.432935
2021,-0.071651,0.374285,0.387657
2022,-0.300747,0.142176,0.370266
2023,-0.156044,-0.218822,0.252569
2024,-0.119207,-0.287645,0.202185
2025,-0.070876,-0.287062,0.226527
2026,-0.03223,-0.138094,0.263155
2027,-0.006207,-0.063077,0.259681
2028,0.041175,-0.109617,0.212154
2029,0.132391,-0.147423,0.009269
2030,0.143878,-0.151786,-0.017518
2031,0.313264,-0.162085,-0.110841
2032,0.430013,-0.018049,-0.080959
2033,0.445406,-0.02033,-0.09954
2034,0.426642,-0.061806,0.059963
2035,0.25596,0.11393,-0.013556
2036,0.115558,0.325949,-0.179286
2037,0.040851,0.459055,-0.185033
2038,0.167613,0.439781,-0.211206
2039,0.242738,0.496308,0.042957
2040,0.203279,0.306423,0.072554
2041,-0.005745,-0.058981,0.029094
2042,-0.117437,-0.005507,0.025872
2043,-0.24351,0.24277,0.399556
2044,-0.303526,1.000967,0.365545
2045,-0.367138,0.957841,0.373133
2046,-0.288048,0.443613,0.155437
2047,-0.06069,0.381875,0.156847
2048,-0.005962,0.410994,0.217103
2049,0.026728,0.354011,0.321439
2050,-0.005631,0.018238,0.454977
2051,-0.044545,-0.085111,0.539085
2052,-0.191866,-0.473029,0.604997
2053,-0.197743,-0.535441,0.568578
2054,-0.207341,-0.631188,0.554112
2055,-0.186543,-0.628078,0.513142
2056,-0.152719,-0.622667,0.42196
2057,-0.146216,-0.458181,0.105293
2058,-0.119722,-0.329784,0.049552
2059,-0.107109,-0.154588,-0.017681
2060,-0.034631,0.279856,-0.174234
2061,0.058575,1.044126,-0.26469
2062,0.012394,1.219739,-0.218682
2063,-0.124928,0.293377,-0.140853
2064,-0.125354,0.312824,-0.139153
2065,0.104423,0.558052,0.024453
2066,0.233925,0.812732,0.236189
2067,-0.272093,0.166357,0.556287
2068,-0.372931,-0.284771,0.456949
2069,-0.241581,-0.317902,0.524137
2070,0.123303,-0.412192,0.950244
2071,0.201592,0.160517,0.626333
2072,0.358304,0.432596,0.472221
2073,0.182095,0.537098,0.412496
2074,-0.110294,0.239308,0.382662
2075,-0.214314,-0.018341,0.306257
2076,-0.204962,-0.25294,0.235345
2077,-0.097425,-0.345792,0.20492
2078,-0.027471,-0.301638,0.218894
2079,0.032265,-0.176946,0.297478
2080,0.008287,-0.076633,0.234058
2081,0.006593,-0.11172,0.128968
2082,0.024514,-0.16761,0.034687
2083,0.183323,-0.149855,0.008891
2084,0.275784,-0.107163,0.00205
2085,0.373256,-0.029566,-0.034811
2086,0.505358,-0.022233,-0.077167
2087,0.438187,-0.053265,-0.030214
2088,0.366693,0.122565,0.039806
2089,0.316806,0.376345,-0.097294
2090,0.233399,0.349089,-0.231666
2091,0.281672,0.334215,-0.265837
2092,0.179912,0.288793,0.113615
2093,0.154938,0.136344,0.136686
2094,0.088297,-0.126391,0.302677
2095,-0.17474,0.280561,0.289746
2096,-0.183425,0.548002,0.45299
2097,-0.35442,1.133163,0.419047
2098,-0.459418,0.472325,0.111411
2099,-0.39216,0.425356,0.040014
2100,-0.277783,0.367926,0.095059
2101,0.023874,0.394734,0.316869
2102,0.06473,0.35181,0.37461
2103,0.080326,0.077129,0.391953
2104,-0.024434,-0.30635,0.58387
2105,-0.065582,-0.492252,0.617752
2106,-0.125304,-0.621827,0.574024
2107,-0.146964,-0.648494,0.560411
2108,-0.201913,-0.661111,0.511498
2109,-0.241103,-0.492925,0.30824
2110,-0.222793,-0.446492,0.233628
2111,-0.217443,-0.340402,0.172335
2112,-0.236211,-0.080931,0.033189
2113,-0.016293,0.474767,-0.233063
2114,0.115001,0.867022,-0.351944
2115,0.232504,0.994592,-0.342655
2116,0.091478,0.041573,-0.2713
2117,-0.078126,-0.241471,-0.188041
2118,0.034987,0.003474,0.11791
2119,-0.052437,1.020351,0.51859
2120,-0.051229,1.556332,0.449299
2121,-0.174651,-0.595053,0.574605
2122,-0.248373,-0.606663,0.619127
2123,-0.181261,-0.444439,0.746924
2124,0.193237,-0.048458,0.728627
2125,0.322864,0.228753,0.536691
2126,0.284574,0.404637,0.481932
2127,-0.187582,0.476692,0.456805
2128,-0.263692,0.168988,0.356918
2129,-0.194085,-0.041857,0.278724
2130,-0.071273,-0.380844,0.186714
2131,-0.044794,-0.361581,0.218205
2132,-0.012882,-0.300922,0.219683
2133,0.029993,-0.066354,0.257857
2134,0.046191,-0.054368,0.195249
2135,0.078414,-0.116532,0.101851
2136,0.151653,-0.191508,0.066624
2137,0.23474,-0.187778,-0.031042
2138,0.343678,-0.055523,-0.111796
2139,0.350067,-0.004019,-0.084187
2140,0.414977,0.017887,0.076161
2141,0.203854,0.062526,0.035588
2142,0.231979,0.255125,-0.047311
2143,0.259505,0.410901,-0.163562
2144,0.299152,0.434214,-0.180638
2145,0.184744,0.583917,-0.029008
2146,0.156873,0.204039,0.11429
2147,0.112089,0.040569,0.171514
2148,-0.029537,0.017496,0.154799
2149,-0.218866,0.457392,0.433537
2150,-0.330137,0.757912,0.40557
2151,-0.565709,1.017654,0.39194
2152,-0.386181,0.37306,0.081709
2153,-0.308107,0.352887,0.102207
2154,-0.095088,0.294313,0.180576
2155,0.093608,0.14268,0.356336
2156,0.091275,0.05806,0.431221
2157,-0.016357,-0.275682,0.531267
2158,-0.066504,-0.321837,0.617782
2159,-0.18396,-0.526146,0.572563
2160,-0.21471,-0.586281,0.529139
2161,-0.228525,-0.595932,0.50169
2162,-0.16931,-0.539833,0.336437
2163,-0.132787,-0.431567,0.183776
2164,-0.117694,-0.349331,0.057174
2165,-0.105721,-0.182458,-0.114088
2166,0.155682,0.536932,-0.357999
2167,0.194983,0.874567,-0.408677
2168,0.161472,1.11661,-0.428527
2169,0.213469,0.392415,-0.199275
2170,-0.164041,-0.306732,-0.12059
2171,-0.211608,-0.449613,-0.05231
2172,-0.175478,0.109784,0.373407
2173,-0.294531,0.825868,0.483705
2174,-0.221973,1.141351,0.360794
2175,0.040671,0.082082,0.708053
2176,-0.117772,-0.145836,0.75535
2177,-0.15376,-0.041435,0.714841
2178,0.1689,-0.003902,0.52135
2179,0.062055,0.02822,0.490374
2180,0.063914,0.007323,0.447168
2181,-0.117512,0.300464,0.461136
2182,-0.09838,0.231888,0.41241
2183,-0.051377,0.101787,0.352589
2184,-0.014977,-0.232601,0.148673
2185,-0.038992,-0.307254,0.192939
2186,-0.054432,-0.307642,0.206866
2187,-0.054558,-0.167367,0.258609
2188,-0.044399,-0.154069,0.183784
2189,0.020857,-0.200669,0.1027
2190,0.130695,-0.245225,0.06695
2191,0.27742,-0.166454,-0.03892
2192,0.358234,0.030431,-0.122389
2193,0.451888,0.098671,-0.048395
2194,0.290679,0.023151,-0.028371
2195,0.359612,0.130592,-0.040874
2196,0.411248,0.295126,-0.153164
2197,0.367214,0.386955,-0.285881
2198,0.291377,0.39016,-0.272683
2199,0.162215,0.353358,-0.001267
2200,0.1755,0.153515,0.186034
2201,0.18071,0.067504,0.299024
2202,-0.252448,0.378415,0.34155
2203,-0.38463,1.007206,0.494417
2204,-0.668946,1.203102,0.544334
2205,-0.581703,0.565509,0.217282
2206,-0.217231,0.410451,0.027822
2207,-0.113256,0.373571,0.094297
2208,-0.004019,0.48058,0.296345
2209,0.091343,0.015927,0.384766
2210,-0.003944,-0.241439,0.581673
2211,-0.054731,-0.4486,0.7123
2212,-0.063373,-0.515588,0.71401
2213,-0.17418,-0.675221,0.557029
2214,-0.2244,-0.667377,0.524444
2215,-0.201866,-0.648455,0.462973
2216,-0.175355,-0.5031,0.348578
2217,-0.147675,-0.342433,0.172908
2218,-0.146978,-0.345862,0.094689
2219,-0.15479,-0.200908,-0.089406
2220,0.126283,0.941293,-0.405647
2221,0.111017,1.182898,-0.424191
2222,0.201893,1.171716,-0.336987
2223,0.036809,-0.296668,-0.082514
2224,-0.121794,-0.748461,0.069884
2225,-0.208019,-0.249043,0.405263
2226,-0.370146,0.746057,0.606033
2227,0.191368,2.457283,0.295346
2228,0.11227,0.220425,0.656272
2229,-0.260704,-0.167944,0.606687
2230,-0.072092,-0.108964,0.572381
2231,0.002686,-0.119199,0.572405
2232,-0.031005,-0.017372,0.565303
2233,-0.13253,0.129801,0.539088
2234,-0.235148,0.284158,0.435413
2235,-0.192828,0.222893,0.375996
2236,0.030077,-0.179207,0.244167
2237,0.019793,-0.324987,0.204824
2238,-0.022084,-0.361578,0.284426
2239,-0.016402,-0.27086,0.267419
2240,-0.040782,-0.150822,0.131413
2241,0.008346,-0.134102,0.053951
2242,0.177839,-0.201594,-0.022237
2243,0.261604,-0.156945,-0.080191
2244,0.381319,0.072071,-0.118553
2245,0.502121,0.200897,0.019358
2246,0.382705,0.128016,0.03446
2247,0.176628,0.193858,-0.039902
2248,0.136698,0.59047,-0.060419
2249,0.204299,0.654245,0.070616
2250,0.089258,0.575133,0.130569
2251,-0.232307,0.349283,0.124394
2252,-0.302295,0.168278,0.131078
2253,-0.34291,-0.067758,0.037068
2254,-0.416754,0.151372,0.117985
2255,-0.428088,0.374384,0.282825
2256,-0.305303,0.875562,0.421583
2257,0.08452,0.434671,0.20629
2258,0.100478,0.410997,0.235208
2259,0.032623,0.412281,0.267328
2260,-0.143422,0.201093,0.339166
2261,-0.235986,-0.117637,0.408208
2262,-0.220234,-0.270411,0.491324
2263,-0.227167,-0.34795,0.577011
2264,-0.172321,-0.491683,0.530174
2265,-0.075591,-0.604079,0.484335
2266,-0.078009,-0.627076,0.464871
2267,-0.004868,-0.69078,0.302866
2268,-0.042949,-0.533522,-0.023734
2269,-0.019351,-0.316166,-0.141437
2270,0.048773,-0.077096,-0.219788
2271,0.11968,0.285924,-0.342491
2272,0.120449,0.797903,-0.268321
2273,0.040265,0.784497,-0.191584
2274,-0.287902,0.455505,-0.117379
2275,-0.208454,0.928684,0.061455
2276,-0.070862,0.826142,0.234206
2277,-0.236776,-0.035018,0.590166
2278,-0.128026,-0.20637,0.658445
2279,0.034849,-0.24591,0.988329
2280,0.205862,0.030408,0.668061
2281,0.26533,0.194,0.505434
2282,0.282005,0.377453,0.390067
2283,-0.036682,0.612359,0.441644
2284,-0.352439,0.065038,0.304062
2285,-0.355159,-0.115409,0.194458
2286,-0.154484,-0.34812,0.139647
2287,0.055532,-0.349588,0.220302
2288,0.093646,-0.321951,0.252717
2289,0.126167,-0.250626,0.346135
2290,0.09178,-0.19585,0.340182
2291,-0.017634,-0.211855,0.112972
2292,-0.068574,-0.279917,0.021587
2293,-0.020494,-0.231155,-0.01663
2294,0.094068,-0.052785,-0.044724
2295,0.277265,0.161184,-0.067089
2296,0.32916,0.06892,-0.087149
2297,0.342484,-0.039206,0.068999
2298,0.330298,0.002881,0.138487
2299,0.46422,0.356387,-0.129877
2300,0.395804,0.392424,-0.190888
2301,0.357287,0.493779,-0.169299
2302,0.249481,0.455164,0.14883
2303,0.135405,0.341244,0.208974
2304,-0.007013,0.297762,0.203879
2305,-0.458789,0.536827,0.419049
2306,-0.578762,0.706331,0.528428
2307,-0.484674,0.467803,0.248027
2308,-0.311751,0.39646,0.135581
2309,-0.193294,0.418099,0.125807
2310,0.100327,0.432627,0.198248
2311,0.105818,0.457032,0.301709
2312,0.12655,0.221734,0.417537
2313,-0.033642,-0.327167,0.664244
2314,-0.092831,-0.367144,0.720284
2315,-0.146182,-0.435487,0.704202
2316,-0.257013,-0.641775,0.588654
2317,-0.26231,-0.646272,0.618765
2318,-0.224062,-0.60261,0.495937
2319,-0.197713,-0.519293,0.326527
2320,-0.185396,-0.419256,0.190131
2321,-0.163298,-0.324014,0.094205
2322,-0.091124,-0.093069,-0.153293
2323,0.118295,0.491153,-0.370339
2324,0.113249,1.370003,-0.483695
2325,0.441183,1.132672,-0.294014
2326,0.099407,0.009585,-0.128281
2327,-0.076209,-0.379624,-0.096578
2328,-0.093912,-0.286,0.131295
2329,-0.36403,0.449291,0.529193
2330,-0.166534,1.659475,0.296807
2331,-0.034622,0.630378,0.697618
2332,-0.1627,-0.173436,0.613623
2333,-0.12327,-0.066383,0.627951
2334,0.128317,-0.037038,0.645813
2335,0.130723,-0.03318,0.587147
2336,0.068705,0.070008,0.539166
2337,-0.108534,0.251258,0.498235
2338,-0.241365,0.247125,0.434546
2339,-0.158196,0.046307,0.3618
2340,-0.084273,-0.158543,0.213758
2341,-0.088069,-0.303686,0.172054
2342,-0.097571,-0.277069,0.214468
2343,-0.043749,-0.171261,0.261279
2344,0.041954,-0.076047,0.195207
2345,0.079502,-0.113748,0.116535
2346,0.179428,-0.17647,0.031246
2347,0.206702,-0.142966,-0.085977
2348,0.241943,-0.08222,-0.154177
2349,0.322514,0.081112,0.055873
2350,0.310796,0.062154,0.109476
2351,0.158444,0.154029,0.032501
2352,0.159399,0.38353,-0.186369
2353,0.23698,0.34793,-0.294862
2354,0.349706,0.410861,-0.29563
2355,0.33765,0.427321,0.033535
2356,0.273075,0.067815,0.20985
2357,0.234789,-0.056198,0.249859
2358,-0.156616,0.248291,0.257723
2359,-0.223602,0.787191,0.483805
2360,-0.271335,1.11402,0.477044
2361,-0.306744,0.438824,0.082137
2362,-0.277918,0.427698,0.066815
2363,-0.202566,0.403642,0.090446
2364,-0.012044,0.402093,0.303108
2365,0.042616,0.202257,0.416802
2366,0.004322,-0.059927,0.534648
2367,-0.063477,-0.287611,0.668405
2368,-0.116657,-0.396674,0.743064
2369,-0.153703,-0.547905,0.706099
2370,-0.212425,-0.675337,0.623249
2371,-0.190806,-0.656284,0.552486
2372,-0.163798,-0.640757,0.463339
2373,-0.244006,-0.432557,0.206262
2374,-0.276764,-0.133621,0.027215
2375,-0.167291,0.052045,-0.111923
2376,0.117529,0.643502,-0.27411
2377,0.181947,1.359975,-0.345645
2378,0.340503,1.060015,-0.332602
2379,-0.012653,0.491384,-0.235311
2380,0.301463,0.493417,0.37421
2381,0.075785,0.303244,0.617647
2382,-0.433965,0.017444,0.53502
2383,-0.412433,-0.145451,0.585668
2384,-0.228391,-0.308063,0.653973
2385,-0.092488,-0.448355,0.80476
2386,0.110872,0.225216,0.598627
2387,0.205063,0.526735,0.521039
2388,0.252679,0.822513,0.37922
2389,0.071197,0.193662,0.355568
2390,0.063504,-0.068334,0.275443
2391,0.062323,-0.336607,0.174449
2392,0.082269,-0.44875,0.19561
2393,0.084869,-0.448506,0.176893
2394,0.046497,-0.190531,0.334707
2395,0.018817,-0.139278,0.264613
2396,-0.026347,-0.07617,0.142622
2397,-0.061639,-0.066107,-0.066505
2398,-0.013396,-0.104552,-0.095635
2399,0.0843,-0.167292,-0.086561
2400,0.288123,-0.051387,0.033832
2401,0.385374,0.008327,0.058943
2402,0.459502,0.08944,0.151548
2403,0.388165,0.313797,0.004056
2404,0.341342,0.370653,-0.134581
2405,0.244473,0.501254,-0.367387
2406,0.183058,0.424316,-0.227749
2407,0.252447,0.323897,0.007088
2408,0.337648,0.013227,0.371184
2409,0.150625,-0.06627,0.280671
2410,-0.18503,0.405161,0.341811
2411,-0.272572,1.055703,0.511824
2412,-0.651636,1.175309,0.470855
2413,-0.624849,0.548756,0.158214
2414,-0.412734,0.504642,0.106089
2415,-0.25254,0.340509,0.199278
2416,-0.056655,0.389258,0.36176
2417,0.063024,0.181917,0.488604
2418,0.036264,-0.044711,0.521563
2419,-0.097178,-0.412475,0.711606
2420,-0.096901,-0.514521,0.720418
2421,-0.089279,-0.609122,0.674847
2422,-0.117461,-0.730744,0.571136
2423,-0.154726,-0.743879,0.451001
2424,-0.131948,-0.693798,0.30371
2425,-0.141539,-0.526079,0.198648
2426,-0.127507,-0.460771,0.195408
2427,-0.107026,-0.214883,-0.039401
2428,0.106412,0.455871,-0.286519
2429,0.148255,1.31078,-0.423068
2430,0.378524,1.302486,-0.328267
2431,-0.08629,-0.368512,-0.195512
2432,-0.207409,-0.647756,-0.132153
2433,-0.071013,-0.283417,0.064904
2434,-0.017122,1.480956,0.53196
2435,0.148311,2.205777,0.492415
2436,-0.037752,-0.194404,0.82207
2437,-0.236698,-0.378656,0.779216
2438,-0.18376,-0.195858,0.647411
2439,0.062228,0.007884,0.619697
2440,0.025283,0.01086,0.581104
2441,-0.017922,0.087194,0.541358
2442,-0.195515,0.348811,0.480794
2443,-0.201306,0.386303,0.420023
2444,0.0554,-0.050404,0.243652
2445,0.068264,-0.347319,0.192533
2446,0.003634,-0.408898,0.250757
2447,-0.000686,-0.282425,0.275016
2448,-0.059145,-0.208257,0.186313
2449,-0.023226,-0.161548,0.097517
2450,0.128307,-0.200058,0.066943
2451,0.219514,-0.282859,-0.006397
2452,0.304578,-0.202886,-0.106834
2453,0.356252,0.025955,-0.136987
2454,0.318405,-0.017344,0.037663
2455,0.219781,-0.00812,0.138451
2456,0.30764,0.215958,0.079896
2457,0.202857,0.29612,-0.192271
2458,0.174424,0.412621,-0.30291
2459,0.173564,0.373471,-0.129559
2460,0.167897,0.469259,0.034705
2461,0.168714,0.260394,0.290427
2462,0.087487,0.120175,0.21901
2463,-0.331753,0.594045,0.302986
2464,-0.412392,0.885337,0.367326
2465,-0.530514,1.181311,0.417254
2466,-0.415011,0.429884,0.010108
2467,-0.380729,0.440599,0.047337
2468,-0.236115,0.391657,0.149022
2469,-0.083356,0.393368,0.390583
2470,-0.000429,-0.002391,0.528907
2471,-0.038255,-0.133667,0.553305
2472,-0.111654,-0.37191,0.679483
2473,-0.210723,-0.450886,0.669203
2474,-0.24653,-0.530806,0.516088
2475,-0.235975,-0.602727,0.453607
2476,-0.198708,-0.614964,0.374823
2477,-0.041427,-0.594689,0.248525
2478,0.018671,-0.562722,0.110775
2479,-0.015853,-0.502441,0.057426
2480,0.011788,-0.321357,-0.030317
2481,0.067093,0.221983,-0.153904
2482,0.121054,1.13149,-0.276065
2483,0.177873,1.704621,-0.44105
2484,-0.1377,0.312526,-0.21211
2485,-0.555941,-0.455799,0.010886
2486,-0.316151,0.41305,0.42491
2487,-0.160536,1.024417,0.513341
2488,-0.020974,0.192204,0.528438
2489,0.116581,-0.224245,0.81404
2490,0.18673,0.06534,0.700394
2491,0.292612,0.013546,0.52702
2492,0.304935,0.012182,0.388036
2493,0.035604,0.292595,0.519121
2494,-0.086922,0.397973,0.50829
2495,-0.288957,0.323967,0.479166
2496,-0.206281,-0.201563,0.238128
2497,-0.114025,-0.314767,0.17403
2498,-0.065334,-0.363442,0.176655
2499,-0.080409,-0.327016,0.386972
2500,-0.019177,-0.190281,0.386152
2501,-0.039819,-0.104753,0.252699
2502,0.010896,-0.123001,0.09565
2503,0.088143,-0.196678,0.035131
2504,0.148403,-0.253095,-0.027728
2505,0.274397,-0.109544,-0.135417
2506,0.411253,0.116877,-0.10918
2507,0.396963,0.0762,-0.017877
2508,0.281451,0.097514,0.001159
2509,0.313985,0.233392,-0.073783
2510,0.264724,0.359961,-0.235861
2511,0.222342,0.441266,-0.269623
2512,0.1872,0.535357,0.087589
2513,0.146839,0.384359,0.157415
2514,0.057908,0.1257,0.272684
2515,-0.237994,0.410467,0.199392
2516,-0.340095,0.843263,0.579912
2517,-0.599863,0.811998,0.392089
2518,-0.438809,0.422839,0.133818
2519,-0.36707,0.420706,0.109528
2520,0.029965,0.379546,0.183972
2521,0.111871,0.275458,0.364642
2522,0.063992,0.109429,0.394826
2523,-0.001321,-0.136717,0.528976
2524,-0.111915,-0.473453,0.737725
2525,-0.141719,-0.540302,0.723708
2526,-0.209446,-0.647392,0.628065
2527,-0.233154,-0.661006,0.623339
2528,-0.217894,-0.622968,0.561464
2529,-0.245848,-0.522117,0.361203
2530,-0.246998,-0.476191,0.246489
2531,-0.24465,-0.43664,0.172353
2532,-0.174776,-0.178845,-0.059303
2533,0.230009,0.449981,-0.319152
2534,0.229402,1.576433,-0.4129
2535,0.48041,1.606519,-0.224254
2536,-0.073778,0.115253,-0.12119
2537,-0.434165,-0.482963,-0.134748
2538,-0.037857,0.121748,0.119064
2539,-0.104677,1.027533,0.467817
2540,-0.007092,1.194913,0.477794
2541,-0.095974,-0.158043,0.749808
2542,-0.15607,-0.170239,0.845261
2543,-0.068629,-0.106455,0.794408
2544,0.153754,0.046567,0.590172
2545,0.128761,0.163428,0.539348
2546,-0.037308,0.482611,0.520807
2547,-0.281811,0.39666,0.49047
2548,-0.272572,0.23889,0.409571
2549,-0.084119,-0.143357,0.284346
2550,0.00521,-0.360718,0.232734
2551,-0.030197,-0.370435,0.256223
2552,-0.007766,-0.276749,0.321409
2553,0.044521,-0.057011,0.312971
2554,0.042577,-0.071977,0.23529
2555,0.070565,-0.090842,0.044286
2556,0.08427,-0.181852,-0.029276
2557,0.163136,-0.21409,-0.111369
2558,0.243872,-0.101353,-0.110734
2559,0.379403,0.059868,0.008987
2560,0.317888,-0.007333,0.048086
2561,0.260853,0.184443,0.060283
2562,0.159899,0.354943,-0.091061
2563,0.0991,0.444078,-0.208173
2564,0.147853,0.476707,-0.258573
2565,0.103727,0.400246,0.062856
2566,0.219319,0.290047,0.204319
2567,0.039727,-0.004788,0.202097
2568,-0.178103,0.152219,0.157687
2569,-0.294626,0.804088,0.494988
2570,-0.37895,1.051816,0.497462
2571,-0.508507,0.759828,0.350093
2572,-0.300213,0.435116,0.09125
2573,-0.179337,0.393899,0.131669
2574,-0.142255,0.371009,0.202905
2575,0.017826,0.318101,0.364509
2576,0.018274,0.043025,0.461815
2577,-0.024549,-0.047457,0.546195
2578,-0.147685,-0.413064,0.703177
2579,-0.153479,-0.542567,0.668647
2580,-0.200978,-0.588376,0.622663
2581,-0.20891,-0.619255,0.57292
2582,-0.182605,-0.593334,0.448475
2583,-0.155198,-0.459971,0.284075
2584,-0.14261,-0.379934,0.18306
2585,-0.151054,-0.243964,0.080444
2586,-0.040414,0.124591,-0.161506
2587,0.13611,0.806801,-0.335101
2588,0.151632,1.256917,-0.381926
2589,0.105955,0.313232,-0.16196
2590,-0.14334,-0.081205,-0.11869
2591,-0.324084,-0.395223,-0.027771
2592,-0.091263,0.389401,0.226813
2593,-0.163697,0.825265,0.398175
2594,-0.243944,1.287067,0.423673
2595,-0.089436,-0.166112,0.666553
2596,-0.108307,-0.275465,0.789187
2597,-0.067874,-0.152245,0.893725
2598,0.312492,0.108065,0.653627
2599,0.323194,0.323177,0.520968
2600,0.24923,0.383857,0.450337
2601,-0.147336,0.394942,0.556405
2602,-0.293574,0.129615,0.454355
2603,-0.256968,-0.144702,0.289972
2604,-0.159343,-0.323901,0.159643
2605,-0.084646,-0.307649,0.177375
2606,-0.044256,-0.171598,0.26229
2607,0.028976,-0.078626,0.313822
2608,0.064337,-0.089641,0.239915
2609,0.074143,-0.151801,0.113849
2610,0.127038,-0.199297,0.059141
2611,0.257345,-0.182693,-0.045099
2612,0.339905,-0.065104,-0.131706
2613,0.442361,0.088958,-0.096668
2614,0.397982,0.008323,-0.030983
2615,0.299416,0.108345,0.054078
2616,0.279948,0.296647,-0.021656
2617,0.214632,0.44621,-0.183201
2618,0.1338,0.403125,-0.330951
2619,0.049853,0.249643,-0.179226
2620,0.186716,0.084195,0.186388
2621,0.202176,-0.011345,0.355664
2622,-0.018362,0.033003,0.293851
2623,-0.235156,0.447924,0.386351
2624,-0.239551,0.981754,0.538792
2625,-0.477852,1.01209,0.41439
2626,-0.362932,0.497692,0.094053
2627,-0.233051,0.442974,0.019101
2628,-0.080983,0.341442,0.146038
2629,0.030093,0.383269,0.336563
2630,0.133953,0.199171,0.382408
2631,-0.021136,-0.146306,0.552823
2632,-0.049229,-0.237866,0.666552
2633,-0.098682,-0.411942,0.733074
2634,-0.217065,-0.580396,0.705134
2635,-0.233392,-0.624057,0.673716
2636,-0.252095,-0.631907,0.537541
2637,-0.234785,-0.476073,0.323746
2638,-0.21939,-0.415461,0.249168
2639,-0.232262,-0.334042,0.148972
2640,-0.164637,0.101321,-0.167939
2641,-0.069798,0.352819,-0.259666
2642,0.21971,1.245628,-0.37485
2643,0.451191,0.830102,-0.264861
2644,0.098899,-0.125007,-0.160019
2645,0.055441,-0.631264,-0.184373
2646,0.09563,-0.409131,-0.041468
2647,-0.062906,0.088295,0.412404
2648,-0.192142,1.026921,0.680395
2649,-0.23802,1.759762,0.565913
2650,-0.487711,0.109426,0.401905
2651,-0.289647,-0.267111,0.496303
2652,-0.0724,-0.127597,0.858457
2653,0.201032,-0.007153,0.849261
2654,0.270099,0.127521,0.615673
2655,0.162425,0.35934,0.503707
2656,-0.101245,0.331361,0.483971
2657,-0.189789,0.249217,0.429395
2658,-0.173058,-0.089182,0.336201
2659,-0.054407,-0.260885,0.188331
2660,-0.008217,-0.333368,0.19525
2661,0.008065,-0.251878,0.27443
2662,-0.017177,-0.076451,0.360446
2663,-0.007119,-0.083793,0.264063
2664,0.020537,-0.113583,0.143218
2665,0.084333,-0.239145,-0.057699
2666,0.256509,-0.155136,-0.215668
2667,0.362208,-0.011732,-0.16718
2668,0.535249,0.127942,0.02904
2669,0.333804,-0.009531,0.081734
2670,0.189214,0.159293,0.055792
2671,0.173187,0.335754,-0.104998
2672,0.166696,0.451746,-0.218078
2673,0.265097,0.3922,-0.2071
2674,0.159516,0.373664,-0.016141
2675,0.252881,0.255517,0.230539
2676,-0.031762,-0.038689,0.236056
2677,-0.219237,0.10463,0.162927
2678,-0.344825,0.798232,0.503083
2679,-0.530736,1.064908,0.430054
2680,-0.529009,0.80066,0.368452
2681,-0.150082,0.442095,0.030529
2682,-0.00109,0.348045,0.12309
2683,0.098809,0.345391,0.270097
2684,0.15525,0.197327,0.339212
2685,0.088124,-0.037714,0.444041
2686,-0.008997,-0.26177,0.654926
2687,-0.062958,-0.405322,0.736868
2688,-0.154071,-0.53009,0.704781
2689,-0.249223,-0.587048,0.687078
2690,-0.275453,-0.598834,0.591243
2691,-0.249194,-0.476023,0.441503
2692,-0.207876,-0.348785,0.286762
2693,-0.195607,-0.282093,0.184994
2694,-0.212081,-0.091924,0.051338
2695,-0.061108,0.352497,-0.18896
2696,0.102257,0.993044,-0.270097
2697,0.113667,1.101885,-0.316875
2698,0.255009,0.732097,-0.277935
2699,0.046985,-0.356476,-0.150712
2700,0.009683,-0.561001,-0.083921
2701,0.132444,-0.363024,-0.006369
2702,-0.199409,0.523628,0.600681
2703,-0.022233,1.590925,0.531524
2704,-0.088098,1.639642,0.495077
2705,-0.105271,-0.35381,0.540315
2706,-0.135105,-0.192991,0.621464
2707,0.180143,-0.078031,0.772744
2708,0.210196,0.013918,0.65608
2709,0.152575,0.235525,0.556891
2710,-0.092653,0.355897,0.494718
2711,-0.273178,0.260422,0.432811
2712,-0.246288,0.145967,0.397456
2713,-0.068211,-0.164586,0.220599
2714,-0.036045,-0.262313,0.191627
2715,-0.040713,-0.273082,0.196414
2716,0.050644,-0.14464,0.328182
2717,0.044351,-0.191095,0.289539
2718,0.100626,-0.159467,0.17131
2719,0.160423,-0.194853,0.080573
2720,0.247498,-0.179646,-0.02733
2721,0.337754,-0.028066,-0.098052
2722,0.42148,0.091329,0.003536
2723,0.283983,0.014131,0.109494
2724,0.171555,0.092707,0.100387
2725,0.146287,0.287154,-0.035544
2726,0.145856,0.412447,-0.1667
2727,0.226615,0.303526,-0.298195
2728,0.253231,0.243609,-0.172951
2729,0.231953,0.268707,0.044078
2730,0.224676,-0.154926,0.374159
2731,0.30906,-0.147692,0.436299
2732,-0.075961,0.055415,0.189291
2733,-0.158263,0.992868,0.373975
2734,-0.271678,1.251006,0.372636
2735,-0.393831,0.547626,0.123056
2736,-0.178698,0.400765,0.029196
2737,-0.105253,0.363553,0.098998
2738,0.040307,0.424974,0.342519
2739,0.055958,0.218084,0.409094
2740,-0.003067,-0.051587,0.463772
2741,-0.059692,-0.199288,0.636951
2742,-0.099249,-0.327472,0.705628
2743,-0.111039,-0.378285,0.711371
2744,-0.156852,-0.48391,0.622852
2745,-0.136605,-0.470303,0.498557
2746,-0.077634,-0.369024,0.374261
2747,-0.129903,-0.140067,0.190208
2748,-0.146059,0.016134,0.008464
2749,-0.131953,0.127432,-0.136653
2750,-0.010541,0.223406,-0.18549
2751,0.009817,0.192522,-0.217382
2752,0.139001,0.181326,-0.29518
2753,0.300499,-0.042476,-0.264972
2754,0.294882,-0.195315,-0.1765
2755,-0.046478,0.024782,0.421935
2756,-0.141068,0.29294,0.665049
2757,-0.177981,0.933529,0.598242
2758,-0.287054,1.243384,0.478908
2759,-0.210886,0.201642,0.459566
2760,-0.188197,-0.275401,0.711602
2761,0.186034,-0.254197,0.824577
2762,0.292714,-0.040937,0.661051
2763,0.243939,0.314133,0.496692
2764,-0.214042,0.430666,0.485663
2765,-0.324615,0.285511,0.413237
2766,-0.31721,0.135594,0.365829
2767,0.033133,-0.307237,0.224756
2768,0.041261,-0.325484,0.217751
2769,0.016835,-0.229626,0.244019
2770,0.05432,-0.128965,0.263168
2771,0.054278,-0.129337,0.274492
2772,0.133154,-0.140859,0.182976
2773,0.176983,-0.146639,0.104254
2774,0.251942,-0.063753,-0.04415
2775,0.340737,0.063277,-0.07435
2776,0.365962,0.049312,-0.040793
2777,0.446206,0.025096,0.111287
2778,0.317652,0.168519,0.05689
2779,0.283598,0.273234,-0.069159
2780,0.166402,0.448325,-0.202884
2781,0.145108,0.469844,-0.103608
2782,0.040167,0.424198,0.100292
2783,0.066251,0.391029,0.257036
2784,0.103934,-0.056577,0.358625
2785,-0.082948,-0.007748,0.26244
2786,-0.27724,0.286044,0.377616
2787,-0.398645,0.949049,0.413784
2788,-0.536046,0.890008,0.279036
2789,-0.315491,0.431273,0.063157
2790,-0.162892,0.384264,0.131638
2791,-0.027845,0.265611,0.292455
2792,0.087078,0.235285,0.405868
2793,0.119455,-0.008396,0.453237
2794,0.03384,-0.235943,0.614155
2795,-0.025165,-0.404296,0.709175
2796,-0.055374,-0.482661,0.67487
2797,-0.110276,-0.520886,0.616266
2798,-0.122779,-0.533793,0.578848
2799,-0.171894,-0.392558,0.396317
2800,-0.181909,-0.201366,0.216446
2801,-0.156059,-0.094803,0.034736
2802,-0.126649,-0.004932,-0.075801
2803,0.080669,0.299179,-0.187665
2804,0.160219,0.413228,-0.232646
2805,0.209499,0.479038,-0.265696
2806,0.231782,0.314422,-0.236266
2807,0.179202,-0.066998,-0.200715
2808,0.105486,-0.235878,-0.182391
2809,-0.02894,0.376029,0.352899
2810,-0.050724,0.907332,0.367106
2811,-0.060633,1.708067,0.261629
2812,-0.12869,-0.455026,0.45826
2813,-0.130816,-0.568525,0.418929
2814,-0.040941,-0.486625,0.533179
2815,0.387575,-0.235202,0.725867
2816,0.53697,0.106006,0.507535
2817,0.591552,0.328377,0.389027
2818,0.104177,0.603264,0.490849
2819,-0.126382,0.18606,0.450807
2820,-0.168185,-0.168483,0.317085
2821,-0.099261,-0.321309,0.211582
2822,-0.046441,-0.311064,0.193778
2823,0.016789,-0.18275,0.272493
2824,0.05525,-0.154998,0.280956
2825,0.077309,-0.130814,0.326698
2826,0.116585,-0.153484,0.298535
2827,0.102819,-0.094217,0.158529
2828,0.124411,-0.010394,-0.074977
2829,0.177302,0.030199,-0.140099
2830,0.237186,0.054946,0.014916
2831,0.254886,0.123979,0.007536
2832,0.172105,0.258641,-0.073811
2833,0.136702,0.355064,-0.108151
2834,0.19711,0.329917,-0.169367
2835,0.362754,0.259754,-0.018796
2836,0.477547,0.308238,0.301191
2837,0.604061,0.253813,0.105903
2838,0.159797,0.191616,0.044856
2839,-0.165729,0.29414,0.118129
2840,-0.208568,0.395832,0.598226
2841,-0.162373,0.711413,0.605325
2842,-0.007636,0.407727,0.421246
2843,0.154868,0.57974,0.136283
2844,0.242561,0.593417,0.100047
2845,0.289792,0.335691,0.224979
2846,0.123129,0.130801,0.378709
2847,-0.041585,-0.068618,0.453129
2848,0.010317,-0.254386,0.533312
2849,0.045798,-0.372668,0.60686
2850,0.068987,-0.478173,0.58583
2851,0.061211,-0.550671,0.496414
2852,0.036616,-0.495683,0.421188
2853,0.033093,-0.436114,0.329873
2854,-0.047453,-0.078121,-0.097818
2855,-0.051596,0.02385,-0.194496
2856,-0.048548,0.157906,-0.260734
2857,-0.096335,0.463313,-0.018067
2858,0.095224,0.214461,0.14847
2859,0.174476,0.044051,0.172496
2860,0.147356,0.224021,0.18614
2861,0.306159,0.298709,0.198775
2862,0.437554,0.284709,0.457789
2863,0.315309,0.306908,0.455798
2864,0.171136,0.211628,0.404427
2865,0.178282,0.078184,0.410118
2866,0.202442,-0.006427,0.395994
2867,0.048082,0.007975,0.315769
2868,-0.00896,-0.068639,0.251039
2869,0.04147,-0.056574,0.246452
2870,0.110599,-0.00671,0.269388
2871,0.118652,-0.026198,0.247872
2872,0.191762,-0.025011,0.250846
2873,0.265557,-0.103156,0.240869
2874,0.177506,-0.153391,0.195345
2875,0.168668,-0.237736,0.326915
2876,0.229513,-0.199419,0.295454
2877,0.248441,-0.071451,0.0966
2878,0.192473,0.073255,-0.069109
2879,0.083079,0.184654,-0.151609
2880,0.076621,0.176017,-0.07801
2881,0.168142,0.128613,0.046103
2882,0.284053,0.148493,-0.034246
2883,0.275297,0.250954,-0.154418
2884,0.29934,0.288712,-0.237962
2885,0.358398,0.222976,-0.149211
2886,0.414472,0.015407,0.150587
2887,0.473352,0.002335,0.339979
2888,0.153139,0.106614,-0.072234
2889,-0.164809,0.463775,0.026857
2890,-0.055291,0.932371,0.535577
2891,-0.02755,0.735189,0.581527
2892,0.000513,0.515498,0.52214
2893,0.146967,0.536444,0.127241
2894,0.217878,0.453107,0.102015
2895,0.193579,0.400411,0.179474
2896,-0.067231,-0.067975,0.437798
2897,-0.052935,-0.049551,0.461019
2898,-0.053408,-0.278288,0.554925
2899,-0.041941,-0.334862,0.571768
2900,-0.000254,-0.350121,0.583481
2901,-0.003174,-0.325278,0.606897
2902,-0.064928,-0.253039,0.583083
2903,-0.018043,-0.210223,0.464583
2904,0.03954,-0.222994,0.293008
2905,-0.010132,-0.171833,0.10123
2906,-0.029642,-0.025116,-0.138808
2907,0.099976,0.123379,-0.388781
2908,0.223714,0.220014,-0.480137
2909,0.447696,0.154935,-0.332815
2910,0.645223,0.04947,-0.139986
2911,0.336735,-0.124892,-0.077416
2912,0.199519,-0.168519,-0.085493
2913,0.076538,0.431298,0.221233
2914,-0.010461,0.808031,0.328133
2915,-0.17521,1.354605,0.294526
2916,-0.219147,-0.36326,0.409028
2917,-0.214474,-0.456269,0.430642
2918,0.036852,-0.308439,0.896695
2919,0.202954,0.074483,0.707282
2920,0.315114,0.612665,0.461754
2921,-0.029684,0.629129,0.327655
2922,-0.276381,0.232193,0.277046
2923,-0.149617,-0.145958,0.299204
2924,0.033733,-0.315947,0.312649
2925,0.129114,-0.297834,0.324024
2926,0.147276,-0.226089,0.296868
2927,0.11337,-0.104665,0.229139
2928,0.062171,-0.090717,0.176475
2929,0.053868,-0.14742,0.169537
2930,0.112557,-0.19776,0.20019
2931,0.202008,-0.123436,0.168184
2932,0.250524,-0.104545,0.033261
2933,0.29732,-0.051764,-0.090787
2934,0.381672,0.092212,0.045304
2935,0.435679,0.190686,0.158712
2936,0.345068,0.247788,0.046543
2937,0.252312,0.36446,-0.071743
2938,0.204517,0.367403,-0.242546
2939,0.255248,0.332729,-0.193075
2940,0.249157,0.412658,0.086265
2941,0.287257,0.292545,0.30104
2942,0.237167,-0.003879,0.355667
2943,-0.050105,0.129644,0.310338
2944,-0.270867,0.683326,0.478464
2945,-0.378871,0.976682,0.510866
2946,-0.522247,1.074752,0.542762
2947,-0.351588,0.415039,0.193447
2948,-0.388724,0.442529,0.240483
2949,-0.050682,0.311918,0.281131
2950,0.136075,0.294654,0.423612
2951,0.113885,0.323633,0.456855
2952,0.000769,-0.128821,0.46843
2953,-0.132698,-0.356323,0.626271
2954,-0.135809,-0.427047,0.644998
2955,-0.156033,-0.533539,0.626548
2956,-0.155138,-0.584937,0.568042
2957,-0.113286,-0.575975,0.455091
2958,-0.026626,-0.558831,0.373898
2959,-0.072383,-0.421978,0.222412
2960,-0.077765,-0.263735,0.082686
2961,-0.048943,-0.00571,-0.103329
2962,0.118977,0.386317,-0.313589
2963,0.310306,0.833607,-0.377489
2964,0.351744,0.797872,-0.305127
2965,0.218621,0.20121,-0.16294
2966,-0.007818,-0.035426,-0.126937
2967,0.186878,0.305839,0.332029
2968,0.123253,0.748298,0.498736
2969,-0.044647,1.49017,0.474475
2970,-0.341605,-0.38194,0.506643
2971,-0.415134,-0.606743,0.50331
2972,-0.147752,-0.407079,0.77164
2973,0.119112,-0.072547,0.780625
2974,0.284734,0.357256,0.53722
2975,0.185944,0.729392,0.457766
2976,-0.091645,0.58048,0.370599
2977,-0.018478,0.066195,0.353847
2978,0.008309,-0.323847,0.284572
2979,-0.004737,-0.433322,0.292768
2980,-0.030824,-0.370565,0.273437
2981,-0.02907,-0.186065,0.253878
2982,-0.03659,-0.08491,0.277864
2983,0.018363,-0.099075,0.233017
2984,0.105506,-0.155808,0.119884
2985,0.209876,-0.112852,0.015184
2986,0.370862,-0.02751,-0.028073
2987,0.421317,-0.044139,0.020896
2988,0.501787,-0.019285,0.030746
2989,0.341988,-0.111616,0.111612
2990,0.356699,0.033175,0.109818
2991,0.331621,0.178755,0.013247
2992,0.152692,0.476428,-0.107477
2993,0.079161,0.449528,-0.062023
2994,0.216288,0.39593,0.210938
2995,0.273554,0.161299,0.290416
2996,0.150927,0.036688,0.307594
2997,-0.154923,0.246578,0.258128
2998,-0.380412,0.569397,0.328794
2999,-0.696256,1.26895,0.478248
3000,-0.740532,0.757588,0.332858
3001,-0.409469,0.44553,0.099095
3002,-0.219513,0.402799,0.1267
3003,-0.061406,0.396549,0.294185
3004,0.043759,0.235709,0.418791
3005,0.008025,-0.005677,0.475598
3006,-0.077396,-0.229935,0.663015
3007,-0.092681,-0.393011,0.743556
3008,-0.102045,-0.511449,0.629373
3009,-0.224875,-0.562039,0.466342
3010,-0.218097,-0.561001,0.409688
3011,-0.179053,-0.34546,0.283775
3012,-0.091784,-0.232956,0.202841
3013,-0.07908,-0.164524,0.105462
3014,-0.10127,-0.005899,-0.007896
3015,-0.035112,0.396115,-0.189665
3016,0.071636,0.83051,-0.388368
3017,0.152442,0.816153,-0.454791
3018,0.18526,0.223376,-0.193265
3019,-0.122664,-0.226305,-0.04331
3020,-0.159237,-0.082964,0.143333
3021,-0.19294,0.3741,0.379559
3022,-0.280252,0.910668,0.41005
3023,-0.329507,0.581084,0.576132
3024,-0.064792,-0.123798,0.687044
3025,-0.062232,-0.120634,0.73057
3026,0.151964,0.052952,0.731712
3027,0.253597,0.331949,0.531157
3028,0.153169,0.332881,0.464803
3029,-0.112595,0.246896,0.45482
3030,-0.215789,0.149822,0.435543
3031,-0.233751,-0.013605,0.370001
3032,-0.189719,-0.10994,0.342016
3033,-0.077631,-0.221331,0.289211
3034,-0.044955,-0.164224,0.328526
3035,-0.026372,-0.128994,0.312714
3036,-0.01435,-0.059473,0.25123
3037,0.035856,-0.129634,0.225808
3038,0.080142,-0.160968,0.175603
3039,0.143675,-0.179087,-0.001415
3040,0.221807,-0.104404,-0.138483
3041,0.334383,0.001173,-0.049186
3042,0.444595,0.005462,0.139423
3043,0.297883,-0.007038,0.161279
3044,0.123817,0.090087,0.075042
3045,0.070784,0.277904,-0.051824
3046,0.061656,0.345765,-0.15412
3047,0.159102,0.259292,-0.208254
3048,0.260488,0.361358,0.051616
3049,0.229332,0.226881,0.205856
3050,0.137154,0.112466,0.254483
3051,0.033881,0.055112,0.247801
3052,-0.38097,0.235422,0.392844
3053,-0.434874,0.487445,0.458811
3054,-0.56695,1.043069,0.338378
3055,-0.346022,0.401814,0.148537
3056,-0.299724,0.285244,0.117314
3057,-0.141247,0.26983,0.168872
3058,-0.035911,0.366903,0.328667
3059,0.046059,0.18254,0.371733
3060,-0.027341,0.012469,0.436757
3061,-0.140264,-0.240318,0.634483
3062,-0.165584,-0.415926,0.639701
3063,-0.202757,-0.509603,0.571526
3064,-0.252417,-0.52075,0.526005
3065,-0.264031,-0.48111,0.412934
3066,-0.195565,-0.473477,0.266423
3067,-0.164186,-0.393283,0.1959
3068,-0.15549,-0.322837,0.165569
3069,-0.156827,-0.057131,0.065375
3070,0.023053,0.517384,-0.130618
3071,0.173009,1.162886,-0.25987
3072,0.251052,1.013646,-0.207175
3073,0.065525,0.102609,-0.180323
3074,-0.136664,-0.379014,-0.107273
3075,-0.073353,-0.136272,0.074242
3076,-0.114247,0.323848,0.445311
3077,-0.177289,1.377617,0.352607
3078,-0.151631,1.555616,0.377497
3079,-0.295727,-0.400014,0.68386
3080,-0.303591,-0.402201,0.678217
3081,0.004786,-0.111439,0.733307
3082,0.201648,0.221054,0.638266
3083,0.137594,0.379843,0.567717
3084,-0.129584,0.532551,0.471602
3085,-0.314517,0.370824,0.434334
3086,-0.231255,0.086595,0.346798
3087,-0.202888,-0.192755,0.242405
3088,-0.157019,-0.27675,0.223734
3089,-0.082312,-0.229552,0.261926
3090,-0.018322,-0.097114,0.27684
3091,0.021399,-0.045992,0.291801
3092,0.025103,-0.072571,0.240737
3093,0.053966,-0.134414,0.123131
3094,0.103876,-0.147508,0.001535
3095,0.19095,-0.116351,-0.135294
3096,0.289714,-0.008549,-0.127276
3097,0.438464,0.010068,0.070794
3098,0.385517,-0.019437,0.207955
3099,0.147242,0.220046,0.050995
3100,0.103542,0.292423,0.012554
3101,0.058189,0.380113,-0.076575
3102,0.106315,0.303274,-0.193827
3103,0.055512,0.315326,0.019396
3104,0.136663,0.179879,0.091168
3105,0.104179,-0.075152,0.307651
3106,-0.180156,-0.042754,0.216196
3107,-0.316352,0.249847,0.377734
3108,-0.310275,0.703622,0.511277
3109,-0.490994,0.992803,0.475796
3110,-0.439113,0.514771,0.245384
3111,-0.282107,0.384721,0.028978
3112,-0.141264,0.417841,0.144361
3113,-0.10206,0.46265,0.292376
3114,0.017999,0.27328,0.362918
3115,-0.007927,0.027631,0.44582
3116,-0.063374,-0.222516,0.604936
3117,-0.112349,-0.388353,0.619946
3118,-0.167436,-0.489683,0.576284
3119,-0.219531,-0.515079,0.555306
3120,-0.208936,-0.513981,0.510035
3121,-0.18165,-0.449694,0.364509
3122,-0.169276,-0.348358,0.272032
3123,-0.161629,-0.347001,0.221297
3124,-0.174669,-0.161719,0.082807
3125,-0.073612,0.225242,-0.118179
3126,0.015346,0.490643,-0.206034
3127,0.251441,1.066151,-0.144429
3128,0.25031,1.075395,-0.131004
3129,-0.04809,-0.080208,-0.139895
3130,-0.081956,-0.244608,-0.075088
3131,-0.023747,-0.032585,0.038769
3132,-0.014115,0.585155,0.364889
3133,-0.312042,1.044534,0.539819
3134,-0.476789,0.490297,0.532318
3135,-0.390303,-0.014746,0.557815
3136,-0.185744,-0.257346,0.745836
3137,-0.086599,-0.157672,0.75962
3138,0.171069,0.042713,0.675058
3139,0.206873,0.390501,0.470086
3140,-0.035206,0.465872,0.431201
3141,-0.189873,0.351785,0.392578
3142,-0.173445,0.088525,0.376535
3143,-0.182444,-0.151215,0.293398
3144,-0.12336,-0.274591,0.270962
3145,-0.087753,-0.235944,0.240007
3146,-0.018399,-0.069183,0.248738
3147,0.037254,-0.05386,0.25932
3148,0.061056,-0.10837,0.181233
3149,0.070328,-0.146618,0.128422
3150,0.149677,-0.179758,-0.04563
3151,0.213075,-0.152637,-0.117405
3152,0.302419,-0.014781,-0.032335
3153,0.41202,0.02672,0.188158
3154,0.353383,-0.019826,0.196039
3155,0.104127,0.090831,0.054056
3156,0.019065,0.242343,-0.031588
3157,0.03717,0.347254,-0.115087
3158,0.147869,0.382791,-0.174613
3159,0.159421,0.451693,0.03003
3160,0.242566,0.280733,0.185092
3161,0.100844,0.021932,0.240266
3162,-0.051261,0.067474,0.23585
3163,-0.27711,0.240392,0.330209
3164,-0.442893,0.689398,0.429126
3165,-0.60079,0.964116,0.394149
3166,-0.448815,0.458158,0.1934
3167,-0.355725,0.365562,0.129478
3168,-0.097964,0.351868,0.212049
3169,0.047638,0.369842,0.32233
3170,0.136872,0.234566,0.322067
3171,-0.001627,0.004329,0.437305
3172,-0.134334,-0.258701,0.668958
3173,-0.158273,-0.357503,0.664098
3174,-0.176136,-0.432614,0.656773
3175,-0.316538,-0.480883,0.543813
3176,-0.284836,-0.469267,0.492167
3177,-0.251519,-0.467686,0.421064
3178,-0.185285,-0.350455,0.236506
3179,-0.178795,-0.348714,0.20158
3180,-0.199127,-0.301272,0.153007
3181,0.056751,0.542682,-0.155638
3182,0.139943,0.859277,-0.220331
3183,0.210374,1.174451,-0.275729
3184,-0.008669,0.138508,-0.18402
3185,-0.168677,-0.10742,-0.169895
3186,-0.200388,-0.178479,-0.140665
3187,-0.052852,0.733687,0.445496
3188,-0.171762,0.935411,0.520928
3189,-0.24691,0.057552,0.587243
3190,-0.267489,-0.384133,0.625156
3191,-0.235486,-0.359267,0.671968
3192,0.115528,-0.076168,0.800576
3193,0.270351,0.331974,0.571042
3194,0.275646,0.508617,0.47604
3195,-0.203027,0.470009,0.450062
3196,-0.372454,0.244122,0.41383
3197,-0.245071,-0.030112,0.365057
3198,-0.148562,-0.214963,0.311621
3199,-0.097175,-0.254262,0.328882
3200,-0.035322,-0.19354,0.358442
3201,0.007872,-0.039319,0.339155
3202,-0.020583,-0.004672,0.250987
3203,-0.057918,-0.065,0.189126
3204,-0.060452,-0.149626,0.111152
3205,0.012869,-0.19969,0.035988
3206,0.119893,-0.186139,-0.092446
3207,0.24117,-0.094907,-0.078408
3208,0.419523,0.002237,0.112789
3209,0.370414,0.025878,0.186442
3210,0.195358,0.136895,0.099107
3211,0.076702,0.270656,-0.066372
3212,0.0164,0.323682,-0.132514
3213,0.080758,0.347607,-0.215589
3214,0.189467,0.372001,0.007681
3215,0.217773,0.3922,0.17435
3216,0.124463,0.108271,0.220147
3217,-0.138122,0.039275,0.207479
3218,-0.268923,0.138504,0.199208
3219,-0.403117,0.617325,0.45376
3220,-0.532998,1.013355,0.446673
3221,-0.443293,0.55427,0.290535
3222,-0.212168,0.324629,0.12615
3223,0.047817,0.495706,0.207565
3224,0.024056,0.517705,0.304045
3225,0.04415,0.469472,0.346281
3226,-0.090839,-0.112355,0.551551
3227,-0.137286,-0.2143,0.624475
3228,-0.198713,-0.340258,0.632956
3229,-0.238785,-0.471373,0.517576
3230,-0.247745,-0.528192,0.508917
3231,-0.185708,-0.516794,0.495877
3232,-0.190806,-0.424048,0.419921
3233,-0.163104,-0.404347,0.381778
3234,-0.135857,-0.250116,0.303322
3235,-0.15267,0.074437,0.101176
3236,-0.100385,0.315494,-0.064292
3237,0.130118,1.200229,-0.301557
3238,0.102288,0.999207,-0.255117
3239,0.028971,0.047157,-0.244565
3240,-0.179673,-0.246986,-0.172681
3241,0.09188,0.192322,0.08198
3242,0.265331,0.852648,0.404
3243,-0.051855,1.209529,0.570288
3244,-0.297218,0.641165,0.58659
3245,-0.410698,-0.473329,0.50103
3246,-0.240621,-0.476104,0.621613
3247,-0.000977,-0.372732,0.924038
3248,0.198465,0.082487,0.795273
3249,0.350851,0.78028,0.527207
3250,0.028375,0.715207,0.439261
3251,-0.331656,0.35173,0.307882
3252,-0.332029,-0.082672,0.264843
3253,-0.16401,-0.304358,0.317845
3254,-0.041332,-0.321783,0.378443
3255,0.037422,-0.21029,0.398211
3256,0.091174,-0.028563,0.309173
3257,0.056732,0.034775,0.241364
3258,-0.047958,-0.055026,0.189245
3259,0.001737,-0.176554,0.119023
3260,0.085093,-0.186627,0.061913
3261,0.213834,-0.131615,-0.029666
3262,0.307793,-0.016908,-0.032519
3263,0.322198,-0.035689,0.061281
3264,0.371362,0.023917,0.176315
3265,0.113659,0.094185,0.064264
3266,0.09085,0.185049,0.014191
3267,0.071117,0.266913,-0.020399
3268,0.252875,0.400827,-0.093631
3269,0.274447,0.45976,0.010845
3270,0.264463,0.54086,0.203649
3271,0.084032,0.151588,0.2209
3272,-0.050009,-0.029406,0.288716
3273,-0.243484,0.097417,0.267202
3274,-0.377554,0.435002,0.462532
3275,-0.512282,1.154835,0.479199
3276,-0.458109,0.743564,0.344169
3277,-0.248851,0.368418,0.168595
3278,-0.121009,0.385706,0.221584
3279,0.006026,0.404718,0.335195
3280,0.018056,0.342764,0.402928
3281,-0.009839,0.13574,0.452723
3282,-0.075946,-0.06467,0.651301
3283,-0.10773,-0.311983,0.729055
3284,-0.126276,-0.481082,0.662775
3285,-0.252003,-0.522062,0.572475
3286,-0.249812,-0.505239,0.550561
3287,-0.218361,-0.457404,0.460104
3288,-0.191511,-0.233397,0.342227
3289,-0.169683,-0.164969,0.242211
3290,-0.167067,-0.038574,0.116108
3291,-0.050288,0.297083,-0.106997
3292,0.151609,0.770965,-0.225656
3293,0.212134,1.096366,-0.319428
3294,0.280499,0.670675,-0.199881
3295,0.03396,-0.083171,-0.142937
3296,-0.082966,-0.402509,-0.124874
3297,0.107197,-0.163952,0.028725
3298,-0.037826,0.23447,0.388304
3299,-0.056751,0.749234,0.510449
3300,-0.110644,0.969118,0.538215
3301,-0.119367,0.129009,0.676947
3302,-0.218003,-0.202247,0.67737
3303,-0.181195,-0.083128,0.60354
3304,-0.06045,-0.004141,0.564512
3305,0.012132,-0.062194,0.574943
