,userAcceleration.x,userAcceleration.y,userAcceleration.z
0,-1.452646,0.487609,0.243056
1,-1.252442,0.519747,0.316493
2,-0.32668,0.27915,0.188983
3,0.384259,0.75976,-0.110478
4,0.926346,1.338398,-0.502491
5,0.883257,0.771135,-0.207335
6,-0.137007,0.375332,0.413238
7,-0.516405,0.401664,-0.107756
8,-0.046781,0.47933,-0.229104
9,0.275464,0.292629,-0.079082
10,0.567994,0.144031,-0.116342
11,0.568481,-0.210318,-0.160868
12,0.611291,-0.42251,-0.190106
13,0.693709,-0.532235,-0.278785
14,0.763956,-0.566777,-0.342583
15,0.795313,-0.611571,-0.379214
16,0.883252,-0.706143,-0.360112
17,0.98967,-0.707456,-0.266741
18,1.038251,-0.641933,-0.20168
19,0.960928,-0.472222,-0.007041
20,0.418925,-0.104597,0.329123
21,0.276479,0.196337,0.895039
22,-2.981663,2.133878,1.254236
23,-1.101885,0.533605,0.269659
24,0.069065,-0.254214,0.090967
25,0.4838,-0.3237,-0.175514
26,0.680186,-0.122718,-0.625829
27,0.749581,0.719831,-1.341862
28,-0.236798,0.866746,0.922615
29,0.687716,0.007546,0.376586
30,1.273532,-0.067968,-0.976071
31,1.442292,-0.62951,-0.574179
32,1.482593,-0.688352,-0.381179
33,0.144878,0.108395,-0.197687
34,-0.596583,0.603753,0.202328
35,-0.93977,0.391722,0.120511
36,-0.782763,-0.072081,0.12079
37,0.264678,-0.464582,-0.314654
38,0.401685,-0.451769,-0.180556
39,0.30158,-0.425028,0.018174
40,0.067514,0.090387,0.358933
41,-0.049395,0.384251,0.464134
42,-0.170364,0.188684,0.395282
43,-0.411702,-0.263406,0.233705
44,-0.512174,0.024054,0.291573
45,-0.594899,0.270544,0.547043
46,-0.501875,0.229957,0.594674
47,-0.669859,0.302272,0.455636
48,-0.89637,0.312617,0.174915
49,-1.096494,0.209817,0.239737
50,-1.222704,0.292735,0.383073
51,-1.178138,0.534713,0.292939
52,-0.80619,0.321267,0.403965
53,-0.221562,0.328993,0.389679
54,0.641698,0.994162,-0.228424
55,1.057702,1.443351,-0.718242
56,1.045128,1.254132,-0.36509
57,-0.085274,0.737545,0.339692
58,-0.323963,0.465245,-0.002521
59,0.284024,0.628453,-0.129845
60,0.542467,0.271345,-0.042451
61,0.61622,-0.07936,-0.19267
62,0.563798,-0.436835,-0.198582
63,0.640536,-0.565898,-0.235938
64,0.710607,-0.598126,-0.299261
65,0.774878,-0.656622,-0.339378
66,0.833591,-0.737797,-0.398491
67,0.87125,-0.762398,-0.433012
68,1.076971,-0.712976,-0.337363
69,1.000898,-0.642872,-0.238131
70,0.903972,-0.592238,-0.140401
71,0.309668,0.601832,1.443209
72,-1.47782,2.427427,2.849569
73,-2.416394,2.321819,1.043112
74,-0.619095,0.16125,0.148573
75,0.246396,-0.509408,0.157883
76,0.738026,-0.370917,-0.287225
77,0.981091,0.447873,-1.210803
78,0.680651,1.583498,-0.574657
79,0.029555,1.19881,-0.036912
80,0.685563,0.432838,0.434924
81,1.05387,0.333834,-0.569292
82,1.095947,-0.139002,-0.744833
83,1.214698,-0.799594,-0.328017
84,0.746137,-0.539077,-0.276736
85,0.181811,-0.150076,-0.215715
86,-0.931412,0.640541,0.145899
87,-0.799171,0.237696,0.192989
88,0.129799,-0.43157,-0.107533
89,0.249557,-0.353813,-0.306388
90,0.177168,-0.289623,-0.261894
91,0.077464,-0.11118,0.17174
92,0.077715,0.256774,0.679637
93,0.029322,0.119772,0.654377
94,-0.40356,-0.366869,0.456409
95,-0.534292,0.020746,0.357904
96,-0.495392,0.265912,0.301716
97,-0.312916,0.462991,0.41956
98,-0.599091,0.408536,0.486774
99,-0.890099,0.289978,0.122946
100,-1.150831,0.207474,0.038713
101,-1.427763,0.313441,0.176615
102,-1.470872,0.432769,0.129378
103,-0.80132,0.319397,0.510607
104,-0.071489,0.306366,0.576927
105,0.417546,0.501707,0.259315
106,1.100381,1.324384,-0.636737
107,0.583175,0.757323,-0.008193
108,-0.461923,0.523918,0.401363
109,-0.469268,0.434888,0.106896
110,0.188606,0.542122,-0.039774
111,0.481888,0.207393,-0.103353
112,0.606452,-0.095757,-0.115582
113,0.590187,-0.423548,-0.13094
114,0.652607,-0.523477,-0.213338
115,0.689392,-0.540735,-0.314013
116,0.730047,-0.53854,-0.381755
117,0.784264,-0.643777,-0.403729
118,0.911713,-0.673889,-0.413722
119,1.178578,-0.553777,-0.287352
120,1.162261,-0.467649,-0.215136
121,1.051458,-0.444547,-0.164101
122,0.40858,0.020797,0.239921
123,0.344222,0.381135,0.723226
124,-3.126446,2.488534,1.339334
125,-0.44467,-0.200506,0.165884
126,-0.007312,-0.478356,0.110192
127,0.566673,-0.507609,0.010442
128,1.08241,0.291169,-0.509618
129,0.867426,0.814985,-1.564564
130,0.43531,1.615506,-0.607127
131,-0.041015,-0.154865,1.140199
132,0.703998,0.175403,0.320506
133,1.213363,-0.147391,-0.686392
134,1.683972,-0.778129,-0.344372
135,1.266571,-0.585501,-0.220238
136,0.102898,0.253184,0.088955
137,-0.728232,1.022599,0.426594
138,-0.947363,0.178923,-0.0204
139,-0.189042,-0.512612,-0.300155
140,0.229957,-0.492208,-0.355575
141,0.113392,-0.646864,-0.065621
142,-0.164217,-0.111024,0.391605
143,-0.278695,0.522644,0.608186
144,-0.350915,0.295069,0.465592
145,-0.276273,-0.116109,0.295462
146,-0.361929,0.028616,0.166471
147,-0.505609,0.18194,0.354855
148,-0.603049,0.337068,0.549596
149,-0.699977,0.201958,0.326491
150,-0.814318,0.18642,0.258004
151,-1.126462,0.341376,0.368415
152,-1.184082,0.379024,0.486243
153,-1.113152,0.719547,0.545062
154,-0.58883,0.152254,0.359312
155,-0.32503,0.123004,0.119115
156,-0.039551,0.379217,-0.074774
157,0.839527,1.318191,-0.59962
158,0.405315,0.944643,-0.013112
159,-0.600525,0.57822,0.293774
160,-0.199541,0.52998,-0.087094
161,0.404852,0.622159,-0.173793
162,0.634008,0.199722,-0.087675
163,0.632096,-0.111574,-0.169985
164,0.51112,-0.419943,-0.143932
165,0.539873,-0.547296,-0.241071
166,0.609849,-0.613607,-0.348366
167,0.675512,-0.645693,-0.379893
168,0.751601,-0.69129,-0.445012
169,0.937151,-0.778714,-0.51583
170,1.110124,-0.685719,-0.45905
171,1.062723,-0.561929,-0.36677
172,0.647003,-0.37453,-0.075018
173,0.334555,0.070898,0.447384
174,0.319855,0.787165,1.341877
175,-2.271026,2.242533,1.249735
176,-0.081844,-0.356422,0.079147
177,0.266398,-0.543811,-0.002086
178,0.798919,-0.342883,-0.175804
179,1.03704,0.225153,-1.092275
180,0.809182,0.910628,-1.348077
181,-0.257233,1.340572,0.015803
182,0.293785,-0.078326,0.677494
183,0.904417,-0.122762,-0.212915
184,1.134943,-0.337468,-0.72489
185,1.343968,-0.6716,-0.375587
186,0.890867,-0.311629,-0.294823
187,0.372598,0.149994,-0.207538
188,-0.705926,1.074209,0.445796
189,-0.766974,0.040865,0.16613
190,-0.052199,-0.395933,-0.040287
191,0.367417,-0.4086,-0.212069
192,0.398451,-0.552093,0.127777
193,0.129857,-0.054688,0.464954
194,-0.253613,0.115552,0.274355
195,-0.42723,0.128076,0.133788
196,-0.698524,0.01188,0.024213
197,-0.545515,0.006233,0.322642
198,-0.413614,0.117331,0.846148
199,-0.22414,0.349372,0.484192
200,-0.652023,0.376899,0.110261
201,-0.947965,0.352506,0.077813
202,-1.280208,0.262862,0.289419
203,-1.403638,0.33314,0.283977
204,-1.308004,0.517917,0.253067
205,-0.707959,0.26526,0.279163
206,-0.391188,0.137498,0.277208
207,-0.101797,0.280455,0.253222
208,0.735458,1.485184,-0.489936
209,0.849466,1.066676,-0.125656
210,0.482374,0.720385,0.093033
211,-0.261138,0.388912,0.094364
212,0.083141,0.493061,-0.088628
213,0.337986,0.295632,-0.085733
214,0.55465,-0.004648,-0.134747
215,0.475586,-0.342795,-0.231382
216,0.510535,-0.474289,-0.247152
217,0.583209,-0.525161,-0.33366
218,0.656208,-0.54588,-0.387869
219,0.786573,-0.663106,-0.422428
220,0.861679,-0.699771,-0.441238
221,1.170676,-0.751872,-0.443097
222,1.177995,-0.660822,-0.362449
223,0.859165,-0.505632,-0.117822
224,0.35281,-0.161236,0.284558
225,0.285124,0.179489,0.749384
226,-2.642346,2.599722,1.570946
227,-1.145219,0.490437,0.203872
228,-0.521565,-0.035608,0.165245
229,0.456707,-0.842681,-0.358012
230,0.946876,-0.393904,-0.960508
231,0.9866,0.10048,-1.463969
232,0.604299,1.912209,-0.248038
233,-0.710248,1.874538,1.444116
234,-0.599679,0.880523,1.307949
235,1.441497,-0.408619,-0.389648
236,1.781083,-0.923251,-0.633675
237,1.344871,-0.913292,-0.529302
238,0.231981,-0.077756,-0.637554
239,-0.56544,0.544281,0.21152
240,-1.283738,0.936837,0.448544
241,0.029765,-0.508419,-0.147371
242,0.53627,-0.561096,-0.218332
243,0.514396,-0.496612,0.146908
244,0.225774,-0.054473,0.357677
245,-0.028869,0.289541,0.44392
246,-0.357972,0.100632,0.410037
247,-0.497882,-0.12054,0.381838
248,-0.410427,0.207035,0.323383
249,-0.308177,0.267809,0.46471
250,-0.409544,0.187173,0.497708
251,-0.850745,0.349485,0.37974
252,-0.982284,0.345597,0.17625
253,-1.326388,0.136681,0.237929
254,-1.494053,0.133277,0.242259
255,-1.496109,0.121517,0.198589
256,-0.566091,0.367109,0.285563
257,0.15851,0.595854,0.142044
258,0.535902,1.053586,-0.163724
259,0.899159,1.463468,-0.321276
260,0.261263,0.970595,0.25955
261,-0.155615,0.719117,0.313596
262,0.000793,0.568419,0.019432
263,0.360748,0.49011,-0.040112
264,0.455411,0.14926,0.012205
265,0.553146,-0.122197,-0.107471
266,0.611689,-0.448949,-0.259756
267,0.675448,-0.511171,-0.328055
268,0.773159,-0.682533,-0.39587
269,0.816251,-0.798235,-0.41497
270,0.878658,-0.878272,-0.443945
271,1.093026,-0.915491,-0.469309
272,1.228683,-0.648792,-0.338696
273,1.144391,-0.569876,-0.291751
274,0.680172,-0.204292,-0.001453
275,0.370658,0.601947,0.708435
276,-0.286042,2.056366,2.020971
277,-1.524454,1.111542,0.811947
278,-0.438201,-0.293317,0.047934
279,0.247601,-0.743495,-0.105949
280,0.587936,-0.553788,-0.593912
281,0.893713,0.168348,-0.986035
282,0.725378,0.995957,-0.922816
283,-0.447657,2.096272,0.035165
284,-0.327341,0.241456,1.466961
285,1.373492,-0.396357,0.136759
286,1.767856,-0.68994,-0.729739
287,1.379412,-0.588784,-0.325429
288,0.334139,0.162399,-0.372231
289,-0.607892,0.893627,0.102828
290,-1.270414,0.837913,0.306519
291,-0.715276,-0.482233,-0.094524
292,0.106472,-0.557075,-0.223243
293,0.365114,-0.538795,-0.150729
294,0.316151,-0.596356,0.038454
295,0.132215,-0.073262,0.440795
296,-0.098104,0.140692,0.390132
297,-0.382886,0.167112,0.330273
298,-0.37817,0.126296,0.324619
299,-0.277194,0.134097,0.356724
300,-0.328632,0.177118,0.44759
301,-0.667267,0.341655,0.441097
302,-0.942549,0.34493,0.214099
303,-1.142481,0.197411,0.195055
304,-1.250751,0.204666,0.460466
305,-1.112378,0.471751,0.566964
306,-1.020528,0.352751,0.571196
307,-0.590336,0.158837,0.411533
308,-0.141904,0.172362,0.028828
309,0.25534,0.864074,-0.533889
310,0.600654,1.369738,-0.395802
311,0.043009,0.913492,-0.0318
312,-0.69293,0.564203,0.211674
313,-0.167727,0.58209,-0.145652
314,0.407685,0.715557,-0.163081
315,0.598615,0.563444,-0.118838
316,0.598858,0.018184,-0.064231
317,0.567998,-0.247062,-0.141671
318,0.672899,-0.436754,-0.297754
319,0.770422,-0.5148,-0.39606
320,0.808152,-0.691689,-0.424907
321,0.802675,-0.68558,-0.461883
322,0.826461,-0.709657,-0.470148
323,1.168085,-0.509868,-0.26636
324,1.06139,-0.461906,-0.246704
325,0.813671,-0.402158,-0.17906
326,-0.607429,2.035628,3.031389
327,-3.264736,2.771191,2.862931
328,-1.42701,1.222654,0.560719
329,-0.272023,-0.278249,0.088658
330,0.474954,-0.668891,-0.099384
331,1.103322,-0.165964,-0.534035
332,1.209449,0.321022,-0.935474
333,0.889218,1.406479,-0.334735
334,-0.352548,0.844862,-0.278519
335,-0.373659,-0.089682,0.720538
336,0.277074,-0.116771,-0.140988
337,1.139987,-0.482368,-0.65409
338,0.97744,-0.349315,-0.15149
339,0.435864,0.026753,-0.026884
340,-0.355906,0.540149,0.416346
341,-0.391404,0.145896,0.241385
342,-0.244117,-0.121579,0.1984
343,0.384074,-0.324148,-0.214497
344,0.374725,-0.306155,-0.205856
345,0.187301,-0.360936,-0.023266
346,-0.285333,0.004588,0.431984
347,-0.402169,0.211715,0.370265
348,-0.456654,0.14427,0.22458
349,-0.328385,0.020503,0.117836
350,-0.438531,0.084811,0.601137
351,-0.525074,0.198987,0.783441
352,-0.697328,0.290038,0.398745
353,-0.853665,0.379139,0.235712
354,-0.965205,0.389796,0.216237
355,-1.266644,0.26944,0.604416
356,-1.248046,0.33733,0.423464
357,-0.873301,0.130849,0.528719
358,-0.458161,0.174774,0.383241
359,0.02894,0.752782,-0.281369
360,0.666098,1.370158,-0.692154
361,0.551023,1.02525,-0.327666
362,-0.649651,0.772152,0.225436
363,-0.865025,0.593524,0.226425
364,0.011249,0.661397,-0.127252
365,0.662327,0.491767,-0.142122
366,0.791412,0.105173,0.041456
367,0.628217,-0.206336,-0.141014
368,0.573986,-0.451327,-0.264655
369,0.633811,-0.577234,-0.326232
370,0.741483,-0.641746,-0.349535
371,0.792219,-0.681379,-0.402537
372,0.860586,-0.680621,-0.441886
373,0.949385,-0.699287,-0.472526
374,1.089472,-0.516531,-0.17047
375,1.07793,-0.528434,-0.149338
376,0.566783,-0.139374,0.209384
377,-0.73596,1.861452,2.762963
378,-2.823775,2.448019,2.493483
379,-1.541133,1.088363,0.298549
380,-0.323017,-0.069566,0.107102
381,0.234858,-0.676678,0.040843
382,0.731906,-1.082247,-1.241138
383,1.607441,-0.789572,-0.930273
384,1.84663,0.043998,-0.89469
385,0.449964,3.263345,2.108541
386,-1.139723,2.172263,-0.008635
387,0.143175,-0.193857,-0.301053
388,1.763071,-0.903,-0.11354
389,1.874359,-1.048589,-0.266844
390,0.825913,-0.519949,-0.707804
391,-0.413437,0.035989,0.244912
392,-1.002873,0.853763,0.355532
393,-0.923662,0.520518,-0.043539
394,0.359307,-0.576206,-0.179982
395,0.643345,-0.678732,0.135946
396,0.581201,-0.561854,0.370263
397,0.173599,0.091784,0.410973
398,-0.107554,0.570384,0.383053
399,-0.499483,0.560142,0.564651
400,-0.569501,0.168657,0.459439
401,-0.795196,0.182809,0.383603
402,-1.093117,0.561292,0.439961
403,-1.206618,0.475874,0.094202
404,-1.369038,0.322135,0.171424
405,-1.488619,0.305986,0.353071
406,-1.460848,0.401442,0.38246
407,-0.61048,0.344398,0.489279
408,0.042597,0.751055,0.215007
409,0.543374,1.364553,-0.176232
410,0.783769,1.258675,-0.242324
411,0.738942,1.081212,-0.086707
412,-0.264375,0.541387,0.078549
413,-0.210718,0.558734,0.099457
414,0.122335,0.601332,0.07479
415,0.746718,0.247181,-0.11122
416,0.709267,-0.163322,-0.26035
417,0.591991,-0.437103,-0.221099
418,0.669461,-0.555669,-0.277108
419,0.758696,-0.648008,-0.317718
420,0.815325,-0.691544,-0.385961
421,0.835173,-0.790897,-0.429526
422,0.985322,-0.915133,-0.421352
423,1.139333,-0.891397,-0.329748
424,1.004037,-0.700285,-0.215534
425,0.658404,-0.517464,-0.050171
426,0.389115,0.107206,0.601624
427,-2.22502,2.538529,2.651577
428,-1.642651,2.053153,0.588105
429,-0.568203,0.068034,0.198421
430,0.123688,-0.603354,-0.037567
431,0.667084,-0.014011,-0.750463
432,0.902249,0.71899,-1.081009
433,0.009415,0.94176,0.293774
434,-0.105749,0.156295,0.872159
435,0.886562,0.030421,0.66454
436,1.198914,-0.289627,-0.742409
437,1.215043,-0.541007,-0.492949
438,0.496143,-0.190478,-0.343558
439,-0.406013,0.282191,0.240818
440,-0.989922,0.44393,0.346616
441,-0.759209,-0.154479,0.169964
442,-0.052413,-0.421353,-0.087088
443,0.209914,-0.436345,-0.203177
444,0.192175,-0.412126,-0.124051
445,0.021101,-0.138932,0.24853
446,0.006904,0.243274,0.610061
447,-0.094399,0.10868,0.562098
448,-0.255109,-0.08912,0.276659
449,-0.384871,0.116733,0.393481
450,-0.629158,0.359074,0.572774
451,-0.783455,0.43842,0.416294
452,-1.03245,0.485983,0.328647
453,-1.260012,0.27422,0.273285
454,-1.424347,0.220713,0.348724
455,-1.414446,0.280325,0.337688
456,-1.217004,0.221909,0.3632
457,-0.930266,0.161592,0.372789
458,0.098803,0.955268,-0.404435
459,0.443462,1.376296,-0.520855
460,0.682213,1.429205,-0.393141
461,-0.136006,0.879777,0.0643
462,-0.67915,0.495695,0.262998
463,-0.052867,0.618638,0.031746
464,0.470392,0.55481,-0.042802
465,0.65239,0.140554,-0.008245
466,0.532588,-0.174098,-0.146743
467,0.508464,-0.402848,-0.277506
468,0.598455,-0.496378,-0.288637
469,0.712848,-0.57865,-0.297215
470,0.712334,-0.61837,-0.361756
471,0.74388,-0.630526,-0.40536
472,0.904485,-0.73382,-0.451329
473,1.178616,-0.577007,-0.186844
474,1.096978,-0.564693,-0.106357
475,0.682615,-0.360188,0.069871
476,0.428434,1.331994,1.914848
477,-1.943839,2.690232,3.323969
478,-1.002493,0.371789,0.226029
479,-0.49821,-0.185243,0.017733
480,0.250122,-0.765944,-0.128251
481,0.943164,0.275944,-0.973274
482,0.765534,1.407759,-1.004908
483,0.183369,1.952797,-0.946475
484,-0.392958,-0.286861,1.915731
485,1.261215,-0.512055,-0.162336
486,1.397766,-0.544414,-0.841743
487,1.472217,-0.602121,-0.062119
488,0.793634,0.157923,-0.046845
489,0.355691,0.563328,-0.142817
490,-0.630963,0.775541,0.018417
491,-0.834779,-0.089159,0.186562
492,-0.732354,-0.487313,0.209794
493,0.122886,-0.574471,-0.270834
494,0.204409,-0.482402,-0.129969
495,0.135801,-0.264042,0.297063
496,0.273467,0.273764,0.38098
497,0.035427,0.349091,0.500212
498,-0.305047,0.124878,0.631187
499,-0.401961,0.109366,0.526366
500,-0.345208,0.213629,0.390865
501,-0.469573,0.273765,0.439406
502,-0.668069,0.366092,0.444406
503,-1.12971,0.355756,0.167314
504,-1.244178,0.223999,0.054278
505,-1.490864,0.199444,0.38225
506,-1.100227,0.703669,0.434997
507,-0.828086,0.457405,0.398529
508,-0.425234,0.134558,0.398034
509,0.139247,0.800876,0.166797
510,0.440369,1.212338,-0.208079
511,0.905591,1.214593,-0.073938
512,0.352161,0.839037,0.271617
513,-0.375553,0.557923,0.216359
514,-0.080717,0.55966,-0.048482
515,0.373976,0.387189,0.010591
516,0.574,0.031479,0.012697
517,0.458781,-0.325855,-0.127424
518,0.469858,-0.596745,-0.163396
519,0.542765,-0.574391,-0.213957
520,0.608013,-0.561373,-0.250842
521,0.774392,-0.636356,-0.303874
522,0.842412,-0.646049,-0.338375
523,1.053623,-0.762847,-0.383781
524,0.999254,-0.630399,-0.300726
525,0.902724,-0.539046,-0.227169
526,0.167615,-0.2861,0.413807
527,0.078856,-0.101762,1.08076
528,-2.293916,1.872985,2.579257
529,-1.121504,1.164074,0.471926
530,-0.207328,-0.057921,0.725697
531,0.107522,-0.431953,0.394223
532,1.303982,-0.007835,-0.797522
533,1.950393,0.545092,-0.439584
534,1.916862,0.845465,-0.120766
535,-0.534521,1.247505,-0.068266
536,-0.064813,0.257312,-0.013221
537,0.86179,-0.415343,-0.268526
538,1.367173,-0.801296,-0.506339
539,0.863574,-0.686422,-0.40598
540,0.251529,-0.32714,-0.163844
541,-0.869238,0.667719,0.225222
542,-0.882164,0.375416,0.212185
543,-0.1521,-0.328526,0.049883
544,0.324921,-0.496433,-0.143396
545,0.372637,-0.562102,0.181143
546,0.150807,-0.382275,0.412302
547,-0.028903,0.17444,0.341907
548,-0.169846,0.258843,0.225814
549,-0.304714,0.245606,0.275907
550,-0.475033,0.093956,0.413274
551,-0.626941,0.100605,0.43282
552,-0.764769,0.162058,0.409099
553,-1.000255,0.380856,0.435607
554,-1.107876,0.345878,0.347285
555,-1.239515,0.416367,0.385453
556,-1.265063,0.581831,0.342093
557,-1.200909,0.685038,0.222623
558,-0.731241,0.185271,0.333404
559,-0.374551,0.121596,0.53
560,0.166099,0.695538,0.053154
561,0.531667,1.117889,-0.242694
562,0.632202,0.90985,-0.032536
563,-0.481881,0.39663,0.299485
564,-0.436249,0.356385,0.18319
565,0.115955,0.454616,-0.003739
566,0.536342,0.253426,-0.072057
567,0.652795,-0.105817,-0.069152
568,0.458879,-0.489546,-0.090443
569,0.470079,-0.650984,-0.2204
570,0.533773,-0.67516,-0.237136
571,0.60273,-0.701179,-0.258841
572,0.69181,-0.669256,-0.298491
573,0.761419,-0.660614,-0.334974
574,1.021215,-0.581681,-0.248432
575,0.990463,-0.475489,-0.107269
576,0.473444,-0.367071,0.203522
577,0.276795,0.045249,0.998403
578,-2.374821,2.141709,2.827058
579,-3.295491,2.331226,1.489276
580,-0.413217,0.052155,0.373551
581,0.339798,-0.409841,0.14004
582,0.640877,-0.178816,-0.14174
583,1.069666,0.668738,-0.89347
584,0.877528,1.565804,-0.693462
585,0.282861,1.094218,-0.182405
586,0.359717,-0.230296,0.547151
587,1.112322,-0.322673,-0.372473
588,1.374808,-0.677153,-0.54972
589,1.062583,-0.421373,-0.289276
590,0.102776,0.304793,0.069106
591,-0.337572,0.663433,0.181973
592,-0.844205,0.209862,0.259836
593,-0.067547,-0.547758,-0.053736
594,0.077911,-0.577161,-0.21409
595,0.146415,-0.546295,-0.299487
596,-0.176915,-0.464159,0.094629
597,-0.372766,-0.104659,0.347073
598,-0.455867,0.607053,0.269317
599,-0.551781,0.3518,0.266614
600,-0.442637,-0.058266,0.315931
601,-0.457495,-0.036614,0.356346
602,-0.507561,0.062745,0.565098
603,-0.680863,0.388791,0.555304
604,-0.987357,0.596623,0.398643
605,-1.194007,0.390803,0.215331
606,-1.262868,0.43781,0.292325
607,-1.218538,0.815105,0.061211
608,-1.188252,0.757695,0.293068
609,-0.695126,0.212137,0.433118
610,-0.162019,0.365415,0.305481
611,0.504196,0.934535,-0.36049
612,0.720004,1.194931,-0.48201
613,0.207397,0.402214,0.034931
614,-0.445361,0.185274,0.25013
615,-0.428286,0.245987,0.178681
616,0.023643,0.485596,-0.149709
617,0.434804,0.312546,-0.194114
618,0.509981,-0.117879,-0.18303
619,0.464788,-0.291913,-0.14641
620,0.450072,-0.607507,-0.169635
621,0.524535,-0.60525,-0.211255
622,0.600083,-0.595782,-0.260025
623,0.662048,-0.645606,-0.321013
624,0.702708,-0.682671,-0.327493
625,0.752747,-0.721229,-0.319921
626,0.918813,-0.650299,-0.080548
627,0.771131,-0.603677,-0.018742
628,0.533505,-0.500836,0.093641
629,0.170399,0.645469,1.748435
630,-2.630573,2.235708,2.012079
631,-1.251955,0.831381,0.299434
632,-0.227736,-0.232782,0.169935
633,0.283453,-0.693351,-0.338755
634,1.0804,-0.05417,-0.739309
635,1.188211,1.148157,-0.493042
636,0.567419,2.189623,0.482497
637,-0.646803,0.7243,0.83608
638,0.744807,-0.329981,-0.198323
639,1.224714,-0.487527,-0.396527
640,1.788028,-1.114923,-0.455218
641,0.540225,-0.357062,-0.302237
642,-0.018987,-0.023458,-0.137874
643,-1.095278,0.784485,0.49469
644,-0.927531,0.034123,-0.008835
645,-0.412545,-0.326352,-0.28505
646,0.328488,-0.560135,-0.081635
647,0.009922,-0.460886,0.548442
648,-0.22586,-0.200002,0.676671
649,-0.428715,0.407319,0.23607
650,-0.543049,0.267437,0.377846
651,-0.271764,0.059973,0.597445
652,-0.095508,0.167697,0.595437
653,-0.484363,0.303706,0.467501
654,-0.851088,0.407725,0.270989
655,-1.145989,0.470404,0.119465
656,-1.424682,0.246255,0.161354
657,-1.416221,0.237784,0.145505
658,-1.388287,0.63171,0.418428
659,-0.940724,0.440673,0.48723
660,-0.623065,0.26039,0.503458
661,0.297627,0.513257,-0.041405
662,0.785495,1.336365,-0.595654
663,0.697689,1.084882,0.104629
664,-0.425391,0.64546,0.466194
665,-0.441466,0.394101,0.181671
666,0.017978,0.55377,-0.07895
667,0.323375,0.322166,0.059035
668,0.484895,-0.034738,0.101139
669,0.512417,-0.173426,-0.029232
670,0.437998,-0.542941,-0.08074
671,0.504643,-0.669603,-0.124623
672,0.594327,-0.761747,-0.154011
673,0.653455,-0.779973,-0.221651
674,0.715452,-0.781133,-0.322497
675,0.887682,-0.742756,-0.354235
676,1.038188,-0.49641,-0.199423
677,0.844774,-0.398652,0.014048
678,0.491185,-0.332962,0.219256
679,0.00817,1.058237,2.508778
680,-3.28833,2.437234,1.250393
681,-1.12898,0.240396,0.543158
682,-0.101986,-0.552022,0.919641
683,0.522091,-0.854122,-1.264382
684,1.272826,-0.298617,-1.019371
685,1.79059,0.707552,-0.038476
686,0.809339,2.233127,0.176514
687,-0.772597,1.200515,0.386099
688,-0.256239,-0.204989,-0.49945
689,0.538084,-0.590689,-0.326875
690,1.22097,-0.838885,-0.253778
691,0.892285,-0.641238,0.043419
692,-0.123098,0.055071,0.208518
693,-0.299761,0.263802,0.387642
694,-0.331843,-0.040193,0.224216
695,0.063613,-0.306073,-0.169637
696,0.14127,-0.258559,-0.047715
697,-0.123876,-0.136908,0.22628
698,-0.320195,0.121897,0.437569
699,-0.377263,0.11476,0.390149
700,-0.500103,-0.057824,0.178405
701,-0.628982,0.239614,0.303392
702,-0.659773,0.338554,0.505984
703,-0.533861,0.276555,0.564578
704,-0.754603,0.463668,0.453053
705,-0.893856,0.519875,0.356192
706,-1.17679,0.336391,0.348375
707,-1.351101,0.271723,0.470779
708,-1.367587,0.425934,0.42099
709,-0.766603,0.233445,0.444851
710,-0.210135,0.236833,0.061986
711,0.063319,0.459249,-0.28107
712,0.664409,1.357069,-0.453567
713,-0.1034,0.875608,0.019933
714,-0.890332,0.515411,0.312436
715,-0.337267,0.493436,-0.158429
716,0.340254,0.628619,-0.208633
717,0.624469,0.313008,-0.060658
718,0.536938,-0.042351,-0.131945
719,0.407622,-0.285066,-0.142192
720,0.473906,-0.376596,-0.21933
721,0.723624,-0.704867,-0.421533
722,0.590292,-0.394339,-0.201763
723,0.673734,-0.564532,-0.374443
724,0.845227,-0.860477,-0.454873
725,1.066728,-0.836448,-0.262146
726,1.035347,-0.767784,-0.146327
727,0.923579,-0.700564,-0.081626
728,0.444744,0.227317,1.22449
729,-0.644519,2.121151,2.789781
730,-2.442007,2.612966,1.590071
731,-0.860595,0.2657,0.282581
732,0.105084,-0.536193,-0.073291
733,0.609875,-0.61708,-0.094947
734,1.038277,-0.203956,-0.813212
735,0.969821,0.012816,-1.163541
736,0.388834,2.004304,0.425412
737,-0.571663,1.287125,1.230556
738,0.334807,-0.062602,0.274704
739,1.18218,-0.34265,-0.655337
740,1.655654,-0.834225,-0.582442
741,0.683462,-0.303135,-0.133006
742,-0.244212,0.36347,0.010651
743,-0.948257,0.785812,0.411994
744,-0.942511,0.075769,0.207487
745,-0.147575,-0.366645,-0.23583
746,0.221299,-0.443548,-0.031272
747,0.156046,-0.506511,0.166391
748,-0.240364,-0.019655,0.358315
749,-0.45507,0.153044,0.265175
750,-0.626203,0.211114,0.218821
751,-0.553006,-0.011963,0.40816
752,-0.518642,0.011639,0.548111
753,-0.458575,0.041086,0.700836
754,-0.401495,0.154213,0.505544
755,-0.689609,0.557839,0.277709
756,-0.8638,0.610332,0.208854
757,-1.275458,0.22176,0.37691
758,-1.303458,0.338763,0.465697
759,-1.120701,0.772706,0.48589
760,-0.77056,0.520431,0.470377
761,-0.341374,0.132234,0.270252
762,-0.171388,0.12774,0.105581
763,0.449471,1.186983,-0.370643
764,0.641692,1.012325,-0.396333
765,-0.165652,0.380548,-0.068099
766,-0.796386,0.236857,0.217534
767,-0.017325,0.536327,0.004993
768,0.04239,0.549853,-0.014542
769,0.756562,0.194068,-0.182444
770,0.669703,-0.265987,-0.119093
771,0.581569,-0.419919,-0.063028
772,0.565545,-0.515933,-0.139436
773,0.65336,-0.55204,-0.192254
774,0.664057,-0.610209,-0.194638
775,0.706604,-0.663488,-0.269293
776,0.843155,-0.671871,-0.329616
777,0.905984,-0.653654,-0.270806
778,0.900434,-0.568767,-0.109126
779,0.616301,-0.316796,0.132685
780,0.242567,0.223493,0.857849
781,-2.043123,1.83619,2.737
782,-1.808247,1.343014,0.573701
783,-0.044993,-0.311592,0.074498
784,0.39175,-0.231262,0.161331
785,0.931904,0.541445,-0.371599
786,0.755582,0.806026,-0.211246
787,-0.555116,1.254893,-0.689481
788,-0.538248,0.280607,1.765826
789,1.350753,-0.200313,0.081
790,1.629274,-0.491863,-0.985174
791,1.596371,-0.940822,-0.430552
792,0.875164,-0.492219,-0.187201
793,-0.136947,0.480687,-0.195785
794,-0.916985,1.148791,0.463415
795,-1.210169,0.360125,0.414992
796,-0.508425,-0.462783,0.162924
797,0.152508,-0.469622,-0.206294
798,0.259806,-0.504707,-0.269138
799,0.065862,-0.467633,0.209113
800,-0.065375,0.198037,0.531133
801,-0.191919,0.36473,0.552174
802,-0.632157,0.115054,0.322413
803,-0.731496,-0.074234,0.368675
804,-0.737237,-0.016236,0.392749
805,-0.542122,0.294862,0.485664
806,-0.574515,0.42332,0.603959
807,-0.821097,0.316587,0.375114
808,-1.071051,0.207167,0.195289
809,-1.294882,0.244228,0.289156
810,-1.383651,0.529216,0.525858
811,-1.240399,0.725322,0.622117
812,-0.426136,0.080754,0.434078
813,-0.155728,0.077301,0.382006
814,0.204528,0.319347,0.076107
815,0.695938,1.680261,-0.576787
816,0.686678,1.39894,-0.194532
817,-0.857177,0.301951,0.487141
818,-0.264993,0.317882,0.042593
819,0.347224,0.522278,-0.091547
820,0.485635,0.104412,-0.017314
821,0.363197,-0.463745,-0.022304
822,0.408226,-0.446987,-0.045254
823,0.474937,-0.591689,-0.168405
824,0.548221,-0.580555,-0.233703
825,0.558681,-0.591626,-0.263266
826,0.568487,-0.617884,-0.284661
827,0.936635,-0.774728,-0.360106
828,1.08749,-0.806692,-0.309671
829,1.074388,-0.634119,-0.148895
830,0.629848,-0.552622,0.01208
831,0.302673,-0.211548,0.465156
832,-1.085685,2.751833,3.403274
833,-1.514926,0.678209,0.659541
834,-0.9467,-0.17117,0.266219
835,0.314301,-0.805179,-0.059277
836,0.922921,0.057253,-0.622945
837,0.910523,0.364656,-1.064895
838,0.315554,1.91015,-0.540085
839,-0.56569,0.225804,2.029654
840,0.081822,-0.422622,1.584837
841,1.482455,-0.394942,-1.032289
842,1.653161,-0.64566,-0.465774
843,0.986932,-0.194034,0.028732
844,-0.104799,0.609399,0.066092
845,-0.906862,0.858354,0.498132
846,-1.118165,0.077961,0.166321
847,-0.345998,-0.498542,-0.148102
848,0.176067,-0.487222,-0.389903
849,0.181916,-0.562283,-0.28734
850,-0.080423,-0.503868,0.235575
851,-0.282757,0.248367,0.420274
852,-0.457999,0.452806,0.508753
853,-0.73343,0.151404,0.391414
854,-0.546946,-0.052287,0.348955
855,-0.450121,0.036294,0.435052
856,-0.497169,0.175438,0.623632
857,-0.922348,0.565348,0.347425
858,-0.93919,0.565234,0.333238
859,-1.274503,0.243579,0.073896
860,-1.499866,0.32981,0.367322
861,-1.480296,0.59429,0.367027
862,-1.012528,0.683968,0.337901
863,-0.539052,0.183913,0.477091
864,-0.067863,0.255098,0.597117
865,0.602293,1.141772,-0.289057
866,0.873597,1.303777,-0.572413
867,0.392517,0.717952,0.123991
868,-0.712215,0.428645,0.414065
869,-0.469787,0.338816,0.100471
870,0.18024,0.551036,-0.046132
871,0.491218,0.236658,-0.055388
872,0.503052,-0.18875,-0.099699
873,0.467876,-0.527835,-0.090421
874,0.488831,-0.66992,-0.144213
875,0.518224,-0.739188,-0.169877
876,0.602557,-0.788132,-0.245307
877,0.720395,-0.894137,-0.296157
878,0.872497,-0.893976,-0.30636
879,0.911195,-0.799085,-0.266231
880,0.841162,-0.518016,-0.040238
881,0.381709,-0.211085,0.287353
882,0.228557,0.886585,1.4137
883,-3.14621,3.165095,2.488558
884,-1.368771,0.396896,0.678214
885,-0.274883,-0.525773,0.233441
886,0.374495,-0.722699,0.040723
887,1.00807,0.425959,-0.297735
888,0.894244,0.601244,-1.000698
889,0.317885,1.481752,-0.969427
890,-0.516276,-0.032885,1.970853
891,0.911152,-0.196572,0.376518
892,1.241491,-0.446868,-0.781397
893,1.330336,-0.706118,-0.473344
894,1.188859,-0.523186,-0.420318
895,-0.025114,0.601635,-0.058689
896,-0.978717,1.05572,0.580523
897,-1.118302,0.607755,0.414622
898,-0.208085,-0.57053,0.078785
899,0.274155,-0.63988,-0.219942
900,0.320573,-0.627285,-0.059244
901,0.161978,-0.519368,0.130241
902,-0.278508,0.820849,0.48466
903,-0.423676,0.641574,0.546132
904,-0.499958,0.164392,0.498224
905,-0.597081,-0.020824,0.146702
906,-0.629641,-0.011868,0.150163
907,-0.824081,0.284534,0.703656
908,-0.840867,0.284381,0.560112
909,-0.904254,0.317847,0.471429
910,-1.060025,0.289035,0.205121
911,-1.209927,0.257098,0.450407
912,-1.278613,0.333992,0.579973
913,-1.070238,0.738564,0.377104
914,-0.605172,0.234631,0.352501
915,-0.453703,0.130483,0.286652
916,0.481352,0.892162,-0.541683
917,0.780405,1.534609,-0.507193
918,0.049443,0.770654,0.110611
919,-0.775603,0.391,0.426918
920,-0.242395,0.408919,0.023837
921,0.383542,0.443576,-0.016175
922,0.491558,0.209636,0.05763
923,0.414694,-0.433866,-0.078563
924,0.426721,-0.586993,-0.17902
925,0.485616,-0.587229,-0.233645
926,0.6175,-0.55709,-0.256211
927,0.675438,-0.596214,-0.292629
928,0.841878,-0.706654,-0.256423
929,1.043378,-0.832196,-0.255521
930,1.142349,-0.770783,-0.199198
931,0.909613,-0.595263,-0.023825
932,0.364921,-0.318534,0.328468
933,0.093553,0.424652,1.409761
934,-3.147437,2.637007,2.743908
935,-1.389151,0.845093,0.722383
936,-0.844614,0.102166,0.336661
937,0.168888,-0.612515,0.171501
938,0.618461,0.130405,-0.546713
939,0.555932,0.547148,-1.701487
940,0.320828,1.589644,-0.95371
941,-0.402116,0.120644,1.529761
942,0.251274,-0.371846,1.540637
943,1.24984,-0.270122,-0.813272
944,1.322453,-0.647817,-0.390783
945,1.30797,-0.608775,-0.267092
946,0.209494,0.402873,-0.104024
947,-0.574655,0.856536,0.454281
948,-0.865283,0.762677,0.492647
949,-0.467214,-0.351401,0.105524
950,0.037403,-0.45443,-0.208352
951,0.11807,-0.460688,-0.23541
952,-0.077951,-0.428442,0.118652
953,-0.206736,0.171122,0.371774
954,-0.267546,0.21475,0.39337
955,-0.398627,-0.001483,0.255672
956,-0.420503,-0.122177,0.212298
957,-0.451909,-0.039925,0.231356
958,-0.718115,0.451249,0.866409
959,-0.706858,0.357951,0.651311
960,-0.821478,0.387535,0.576527
961,-0.979396,0.356972,0.336946
962,-1.172804,0.300229,0.520435
963,-1.341723,0.447652,0.523912
964,-1.325363,0.533625,0.533168
965,-0.791092,0.205421,0.365179
966,-0.137041,0.278733,-0.105268
967,0.52966,1.217134,-0.81367
968,0.198461,0.930295,-0.2897
969,-1.132502,0.554096,0.583693
970,-0.733408,0.314224,0.177384
971,0.181902,0.743985,-0.136615
972,0.60478,0.401042,-0.133896
973,0.545491,-0.16665,0.098634
974,0.457069,-0.381849,-0.048245
975,0.474229,-0.427577,-0.119378
976,0.477566,-0.666367,-0.179321
977,0.56991,-0.786,-0.189956
978,0.622979,-0.798784,-0.267705
979,0.69105,-0.807277,-0.32192
980,0.68538,-0.809361,-0.329226
981,0.938917,-0.775807,-0.288994
982,0.845648,-0.575567,0.018978
983,0.378109,-0.201006,0.268309
984,0.207352,0.087429,0.569639
985,-3.176534,3.177071,2.919695
986,-1.637833,0.557622,0.671554
987,-0.250898,-0.40012,0.124849
988,0.329352,-0.410441,0.012042
989,0.835264,0.365069,-0.779433
990,0.694833,0.771394,-1.463824
991,0.568632,1.116724,-0.285051
992,0.07215,-0.452594,1.527104
993,0.358917,-0.533715,0.899074
994,0.88068,-0.240833,-0.788957
995,0.949902,-0.304741,-0.330505
996,0.817912,0.014095,0.039572
997,-0.088158,0.536527,0.351255
998,-0.783957,0.201346,0.246745
999,-0.660809,-0.127095,0.081833
1000,-0.393013,-0.344531,-0.033968
1001,0.056269,-0.507753,-0.06689
1002,0.012172,-0.536479,0.192419
1003,-0.148127,-0.059593,0.332038
1004,-0.374697,0.179049,0.144024
1005,-0.398967,0.182745,0.144959
1006,-0.624662,0.04329,0.073744
1007,-0.594192,0.083201,0.273147
1008,-0.6686,0.016814,0.357317
1009,-0.712663,0.079169,0.678688
1010,-0.800932,0.258372,0.53786
1011,-1.04633,0.47073,0.332297
1012,-1.233067,0.452224,0.398635
1013,-1.203146,0.378189,0.68254
1014,-1.202451,0.368715,0.653662
1015,-1.13101,0.325432,0.496757
1016,-1.016127,0.150033,0.351915
1017,-0.572086,0.060564,-0.059814
1018,0.207812,0.985015,-0.671264
1019,0.251877,1.3469,-0.585041
1020,-0.02663,1.129105,-0.289764
1021,-0.741124,0.454024,0.09249
1022,-0.041046,0.660379,-0.176387
1023,0.308264,0.802808,-0.205795
1024,0.587124,0.178492,-0.032132
1025,0.415888,-0.182907,-0.115046
1026,0.395896,-0.302627,-0.116949
1027,0.546391,-0.50081,-0.20136
1028,0.716325,-0.593259,-0.259854
1029,0.761087,-0.63656,-0.271072
1030,0.786325,-0.752874,-0.291701
1031,0.938674,-0.803085,-0.331239
1032,1.25709,-0.781692,-0.175178
1033,1.339598,-0.666719,-0.138228
1034,1.048877,-0.590145,-0.170312
1035,0.290616,-0.401033,0.199073
1036,-1.14332,2.129496,3.424689
1037,-2.986697,2.922681,2.987027
1038,-1.713657,1.22084,0.206284
1039,-0.140075,-0.563619,-0.050372
1040,0.14773,-0.574929,-0.100885
1041,0.359741,-0.370999,-0.329658
1042,0.573351,0.547309,-1.240459
1043,0.011194,1.434805,0.155974
1044,-0.409382,0.958695,0.583923
1045,1.063927,-0.103266,0.156885
1046,1.541602,-0.721593,-0.631118
1047,1.567496,-0.836052,-0.347553
1048,0.840927,-0.301897,-0.174012
1049,-0.641079,0.865393,0.499663
1050,-1.086891,1.060061,0.519355
1051,-1.198204,0.011076,-0.109543
1052,-0.332285,-0.501942,-0.136487
1053,0.124159,-0.561274,-0.101579
1054,0.170071,-0.592296,0.305584
1055,-0.013279,-0.058987,0.539537
1056,-0.102669,0.140628,0.565551
1057,-0.280474,0.336122,0.501165
1058,-0.453344,0.157867,0.310895
1059,-0.426582,0.108977,0.222677
1060,-0.555409,0.049376,0.469953
1061,-0.913944,0.309415,0.702996
1062,-1.076958,0.510512,0.27513
1063,-1.239306,0.367903,0.069897
1064,-1.420592,0.206868,0.419457
1065,-1.469515,0.252072,0.604412
1066,-1.122956,0.406429,0.463889
1067,-0.780115,0.326151,0.511684
1068,-0.51327,0.31119,0.377175
1069,0.510286,0.859371,-0.4722
1070,0.778254,1.238408,-0.574068
1071,0.663731,1.29053,-0.115453
1072,-0.74026,0.601672,0.442538
1073,-0.358581,0.453541,0.043334
1074,-0.070584,0.557647,-0.016585
1075,0.309368,0.215976,0.002226
1076,0.347554,-0.185249,0.024342
1077,0.36182,-0.451382,-0.075189
1078,0.496398,-0.615468,-0.178835
1079,0.641272,-0.712603,-0.244418
1080,0.724221,-0.881187,-0.301708
1081,0.790874,-0.973916,-0.363955
1082,0.938009,-1.023944,-0.349917
1083,1.015293,-0.934136,-0.257841
1084,1.100626,-0.512529,-0.072164
1085,0.770215,-0.205931,0.08949
1086,0.509748,0.113935,0.320403
1087,-1.761839,3.498399,3.319536
1088,-1.891107,0.892934,1.23507
1089,-1.208451,-0.14945,0.402057
1090,-0.009264,-0.872356,0.283454
1091,0.298074,-0.997219,-0.718952
1092,0.838826,-0.68741,-0.936829
1093,0.787408,0.089862,-1.293463
1094,0.330836,3.176278,0.691522
1095,-0.606206,1.83291,1.21742
1096,0.652272,-0.592912,0.019821
1097,1.593081,-0.819881,-0.465406
1098,2.083472,-0.992551,-0.398245
1099,1.096663,-0.327858,-0.237234
1100,-0.049805,0.351413,-0.211624
1101,-0.924638,1.103379,0.673741
1102,-1.178363,0.398764,-0.198712
1103,-0.1019,-0.790377,-0.076166
1104,-0.146265,-0.78895,-0.070617
1105,0.05359,-0.277921,0.41567
1106,-0.170974,0.127988,0.265135
1107,-0.462036,0.373465,0.206596
1108,-0.571369,0.167449,0.315853
1109,-0.365202,0.055203,0.445966
1110,-0.410956,0.125521,0.549738
1111,-0.686531,0.257709,0.477741
1112,-0.973394,0.354423,0.298297
1113,-1.114413,0.379208,0.275882
1114,-1.403052,0.139971,0.353083
1115,-1.428845,0.139048,0.450971
1116,-1.363128,0.216326,0.468725
1117,-1.009107,0.385756,0.512497
1118,-0.624241,0.240574,0.552238
1119,-0.415503,0.181995,0.525475
1120,0.404112,0.990612,-0.306252
1121,0.764436,1.605279,-0.526998
1122,0.738003,1.357959,-0.169026
1123,-0.792509,0.521235,0.501864
1124,-0.463558,0.335891,0.094864
1125,-0.160314,0.418409,-0.024733
1126,0.388615,0.249387,0.02749
1127,0.389893,-0.073089,0.110565
1128,0.391512,-0.251322,0.01746
1129,0.359474,-0.574736,-0.168164
1130,0.479787,-0.616232,-0.259998
1131,0.555996,-0.63403,-0.297698
1132,0.682785,-0.756629,-0.347314
1133,0.854367,-0.788496,-0.401313
1134,0.969049,-0.796072,-0.402376
1135,1.276109,-0.586202,-0.075792
1136,0.884456,-0.512022,0.155332
1137,0.504269,-0.305211,0.407605
1138,-0.790327,2.430498,2.379798
1139,-1.930253,2.026436,1.966183
1140,-1.003231,0.744014,1.174154
1141,0.245071,-0.043717,0.188002
1142,0.58187,0.906323,-0.059594
1143,0.461442,0.76051,-0.749255
1144,0.434974,0.629498,-1.11107
1145,0.084637,-0.787214,0.703666
1146,0.583921,-0.615876,0.105051
1147,0.761627,-0.524843,-0.42629
1148,0.845432,-0.468917,-0.490838
1149,0.763087,-0.476998,-0.444513
1150,0.122508,1.102235,0.13676
1151,-0.626611,0.830548,0.44624
1152,-0.752808,0.23646,0.467582
1153,-0.236086,-0.458212,-0.026687
1154,0.102564,-0.508123,-0.205937
1155,0.124407,-0.565673,-0.027311
1156,-0.176432,-0.210969,0.701902
1157,-0.29748,0.608451,0.404194
1158,-0.528091,0.276918,0.307334
1159,-0.680407,-0.106953,0.331258
1160,-0.609318,0.147992,0.493394
1161,-0.533924,0.320563,0.621786
1162,-0.401761,0.320928,0.733125
1163,-0.810252,0.337169,0.282902
1164,-1.116347,0.356926,0.028181
1165,-1.376663,0.231095,0.209074
1166,-1.498607,0.215623,0.680588
1167,-1.371095,0.3286,0.642256
1168,-0.75043,0.374601,0.46521
1169,-0.413415,0.225839,0.241973
1170,-0.234932,0.292872,0.241789
1171,0.70876,1.580734,-0.360564
1172,0.7059,1.259881,-0.236676
1173,0.247189,0.885859,0.049244
1174,-0.778494,0.342644,0.252854
1175,-0.302305,0.421999,0.031309
1176,0.065467,0.535495,0.042988
1177,0.51637,0.097662,0.15182
1178,0.519222,-0.216948,-0.045982
1179,0.5164,-0.32092,-0.144668
1180,0.542437,-0.662314,-0.200062
1181,0.665122,-0.728774,-0.206079
1182,0.720639,-0.787285,-0.226815
1183,0.809735,-0.924265,-0.285697
1184,1.054634,-0.802577,-0.257572
1185,1.042283,-0.809328,-0.253963
1186,0.839504,-0.434571,0.085432
1187,0.522724,0.089934,0.506279
1188,0.340707,0.64243,1.178656
1189,-2.394943,2.432475,1.663713
1190,-0.499167,-0.223619,0.159299
1191,-0.482763,-0.211048,0.204986
1192,0.355103,0.19491,-0.274087
1193,0.265208,1.226166,-1.559095
1194,0.233241,1.214746,-1.549791
1195,0.047601,-0.135403,1.44364
1196,1.638633,-0.523664,-0.258378
1197,1.6426,-0.371306,-0.965631
1198,1.366258,-0.410454,-0.792751
1199,0.73311,0.215826,-0.314756
1200,0.227525,0.712099,-0.446256
1201,-0.23974,1.133157,-0.236827
1202,-1.051651,-0.243909,0.15514
1203,-1.088859,-0.237519,0.17891
1204,0.202951,-0.588562,-0.248816
1205,0.238645,-0.684321,-0.154842
1206,0.07082,-0.573902,0.34542
1207,-0.009385,0.559725,0.518026
1208,-0.239759,0.397385,0.477987
1209,-0.407378,0.092428,0.473255
1210,-0.543642,0.157109,0.345067
1211,-0.620475,0.490765,0.486493
1212,-0.703463,0.393225,0.609067
1213,-0.999704,0.271201,0.49983
1214,-1.250726,0.323828,0.189971
1215,-1.48422,0.248002,0.324513
1216,-1.478439,0.285514,0.624487
1217,-1.095391,0.599028,0.483522
1218,-0.957823,0.611022,0.489231
1219,-0.333019,0.330434,0.479078
1220,0.194921,0.871705,0.074272
1221,0.466222,1.264825,-0.237452
1222,0.585236,1.028108,0.081236
1223,-0.504085,0.645976,0.371469
1224,-0.737137,0.489983,0.343381
1225,-0.196005,0.563313,0.051091
1226,0.328224,0.317971,0.172289
1227,0.452642,0.126966,0.210384
1228,0.367244,-0.464671,-0.037854
1229,0.390211,-0.692506,-0.062745
1230,0.431231,-0.678394,-0.090862
1231,0.698459,-0.731102,-0.356359
1232,0.650233,-0.786943,-0.448429
1233,0.573181,-0.751489,-0.379172
1234,0.652433,-0.737174,-0.116888
1235,0.969292,-0.558924,0.087007
1236,0.94975,-0.567897,0.109648
1237,0.519548,0.182541,0.955451
1238,0.092628,1.023584,1.819129
1239,-1.98237,2.235578,2.930643
1240,-1.3163,0.518598,0.611261
1241,0.240966,-0.616552,0.047421
1242,0.424471,-0.641565,-0.164296
1243,0.82573,0.066155,-0.79496
1244,0.722561,0.578271,-1.072195
1245,-0.076467,1.883887,-0.292124
1246,-0.847298,0.606653,1.363284
1247,0.720569,-0.529394,0.589048
1248,1.161027,-0.529499,-0.281902
1249,1.537207,-0.913697,-0.511347
1250,0.536265,-0.039111,-0.147735
1251,-0.026256,0.451737,-0.046746
1252,-1.201891,1.002745,0.572571
1253,-0.741682,-0.342381,0.317875
1254,-0.309842,-0.418575,0.040824
1255,0.182933,-0.517603,-0.218788
1256,-0.03172,-0.481721,0.277577
1257,-0.21117,-0.303621,0.39488
1258,-0.357238,0.340236,0.199377
1259,-0.491583,0.274908,0.189845
1260,-0.707617,0.110649,0.260719
1261,-0.595997,0.179025,0.497649
1262,-0.57389,0.228079,0.679379
1263,-0.508216,0.239968,0.733922
1264,-1.013478,0.445847,0.424377
1265,-1.208424,0.397748,0.229852
1266,-1.347982,0.326573,0.386011
1267,-1.542963,0.587039,0.426941
1268,-1.432475,0.73973,0.247247
1269,-0.955359,0.341692,0.253411
1270,-0.312146,0.32411,-0.225082
1271,0.270566,1.267355,-0.362192
1272,0.469694,1.53617,-0.345523
1273,-0.278762,0.740383,0.137075
1274,-0.540494,0.361483,0.091216
1275,-0.308365,0.440208,-0.059016
1276,0.237575,0.421822,0.016747
1277,0.36504,-0.249846,-0.008016
1278,0.371018,-0.418238,-0.02892
1279,0.321198,-0.55727,-0.036182
1280,0.413591,-0.604034,-0.077992
1281,0.478492,-0.661332,-0.106505
1282,0.579323,-0.683747,-0.230234
1283,0.665247,-0.76,-0.301785
1284,0.732837,-0.796632,-0.282477
1285,0.830786,-0.729546,-0.181722
1286,0.814548,-0.599806,0.018068
1287,0.696335,-0.523412,0.140975
1288,0.102262,0.001464,1.288396
1289,-2.276438,1.687154,2.357228
1290,-2.951023,2.116743,1.206104
1291,-0.686325,0.259347,0.52345
1292,0.073004,-0.67802,0.205961
1293,0.090851,-0.668876,0.229606
1294,0.729757,0.407531,-1.228632
1295,0.628892,1.018775,-1.009693
1296,0.175107,1.901133,-0.042992
1297,0.828586,-0.075387,0.347174
1298,1.167829,-0.337111,-0.519586
1299,1.472831,-0.871074,-0.679116
1300,1.149553,-0.761406,-0.338099
1301,0.559861,-0.347681,-0.232883
1302,-0.386128,0.56386,0.249872
1303,-1.302379,0.812016,0.438876
1304,-0.44533,-0.411548,0.2131
1305,-0.104092,-0.454637,0.033951
1306,0.368698,-0.612688,-0.05831
1307,0.059514,-0.368274,0.447052
1308,-0.17048,-0.070218,0.573755
1309,-0.359116,0.353211,0.269081
1310,-0.52181,0.075319,0.1811
1311,-0.571592,0.090199,0.241643
1312,-0.6696,0.347904,0.517807
1313,-0.799309,0.218982,0.734647
1314,-0.924612,0.280619,0.619355
1315,-1.089151,0.443267,0.193574
1316,-1.238535,0.38037,0.229282
1317,-1.322429,0.34193,0.429237
1318,-1.498882,0.60469,0.426441
1319,-1.05303,0.2954,0.555575
1320,-0.739293,0.172444,0.460199
1321,0.104286,0.515014,-0.129966
1322,0.48029,1.37623,-0.673781
1323,0.523085,1.352522,-0.411069
1324,-0.943863,0.65423,0.446523
1325,-0.779235,0.360544,0.143206
1326,-0.380141,0.497377,-0.044165
1327,0.275419,0.384931,-0.042562
1328,0.321535,-0.258141,0.007416
1329,0.352782,-0.404621,-0.071877
1330,0.38435,-0.663135,-0.192261
1331,0.476805,-0.667287,-0.235139
1332,0.503932,-0.657578,-0.258703
1333,0.59293,-0.705899,-0.297187
1334,0.694224,-0.688577,-0.332039
1335,0.781806,-0.693365,-0.359601
1336,1.031211,-0.584226,-0.16005
1337,0.573099,-0.436469,0.105424
1338,0.261436,-0.251072,0.325346
1339,-1.493101,2.486072,3.218355
1340,-3.134824,2.589035,3.033068
1341,-2.18313,1.791243,1.452001
1342,0.110076,-0.646755,0.200658
1343,0.459485,-0.731042,-0.520897
1344,0.728516,-0.484823,-0.739608
1345,1.009153,0.461692,-0.804897
1346,0.107374,1.882181,0.207694
1347,-0.51382,1.671813,0.905835
1348,0.726454,-0.115783,-0.318194
1349,1.167381,-0.724478,-0.605218
1350,1.350137,-0.92378,-0.506301
1351,0.600938,-0.372961,-0.210645
1352,-0.396991,0.475583,-0.007222
1353,-0.784076,0.810096,0.292035
1354,-1.129124,-0.02919,0.165437
1355,-0.29784,-0.588911,-0.045403
1356,0.00088,-0.564174,-0.096631
1357,0.221851,-0.54588,0.172757
1358,-0.084734,-0.081834,0.51922
1359,-0.158456,0.24179,0.564666
1360,-0.372065,0.315244,0.387101
1361,-0.485069,-0.047418,0.245441
1362,-0.580134,-0.081619,0.261
1363,-0.863555,0.08805,0.428589
1364,-0.843337,0.41887,0.541321
1365,-0.85362,0.507041,0.510543
1366,-1.080908,0.246764,0.287915
1367,-1.269418,0.277825,0.258085
1368,-1.374247,0.35974,0.264507
1369,-1.501595,0.808511,0.200561
1370,-0.935379,0.306173,0.408869
1371,-0.899067,0.283731,0.381721
1372,-0.140303,0.394274,0.401086
1373,0.512207,1.575638,-0.393981
1374,0.587509,1.562493,-0.391687
1375,-0.035592,0.563741,0.214864
1376,-0.56168,0.250196,0.223349
1377,-0.484138,0.251407,0.210933
1378,-0.140618,0.240729,0.070892
1379,0.303494,-0.139435,-0.108215
1380,0.349885,-0.130949,-0.127559
1381,0.419131,-0.57039,-0.109284
1382,0.480411,-0.63737,-0.145485
1383,0.540624,-0.614551,-0.166762
1384,0.602745,-0.701255,-0.205041
1385,0.759258,-0.73251,-0.239274
1386,0.861828,-0.75353,-0.243689
1387,0.987297,-0.613318,-0.00822
1388,0.879931,-0.561869,0.075744
1389,0.253191,-0.27207,0.42844
1390,-1.422066,2.091169,2.967327
1391,-2.990624,2.416373,2.70752
1392,-1.363821,0.753693,0.696444
1393,-0.011559,-0.467606,0.180418
1394,0.529839,0.216691,0.081679
1395,0.705647,0.534999,-0.473644
1396,0.536697,0.834445,-1.455761
1397,-0.343025,0.374336,0.733183
1398,-0.546113,-0.005408,1.289252
1399,1.212529,-0.455858,-0.428999
1400,1.402715,-0.676116,-0.428612
1401,1.331039,-0.771262,-0.363514
1402,0.398589,0.016933,-0.416631
1403,-0.456968,0.828888,-0.10445
1404,-0.918315,1.168014,0.349749
1405,-1.002843,-0.409621,0.314857
1406,-0.648078,-0.676515,0.11855
1407,0.033734,-0.575901,-0.172563
1408,0.038802,-0.356481,0.212674
1409,-0.067958,0.070516,0.480266
1410,-0.082358,0.38451,0.522374
1411,-0.472263,0.203989,0.584628
1412,-0.620199,0.162244,0.471421
1413,-0.596769,0.207183,0.353475
1414,-0.66942,0.160978,0.461267
1415,-0.941814,0.320368,0.600768
1416,-1.092653,0.414048,0.505096
1417,-1.272521,0.311652,0.22222
1418,-1.440441,0.46597,0.467414
1419,-1.429785,0.453045,0.446311
1420,-1.341732,0.468123,0.380453
1421,-0.516761,0.405527,0.257069
1422,-0.479631,0.380892,0.207479
1423,0.434318,1.425124,-0.637431
1424,0.620319,1.218262,-0.130685
1425,-0.332067,0.686888,0.311362
1426,-0.482425,0.401993,0.074775
1427,0.165778,0.493001,0.03031
1428,0.221066,0.495692,0.002551
1429,0.530013,-0.122097,0.037297
1430,0.178788,-0.542257,-0.020867
1431,0.226512,-0.579904,-0.047862
1432,0.378567,-0.628544,-0.171681
1433,0.484161,-0.737179,-0.196289
1434,0.52782,-0.770023,-0.210701
1435,0.733113,-0.899104,-0.26325
1436,0.889933,-0.867968,-0.195688
1437,0.861508,-0.757368,-0.117491
1438,0.457037,-0.521825,0.132376
1439,0.105826,-0.010169,0.703687
1440,-1.190184,2.187932,2.724933
1441,-2.450476,1.972752,1.205196
1442,-0.709577,0.184321,0.393996
1443,-0.236331,-0.221519,0.311221
1444,0.54825,-0.456141,-0.055024
1445,0.935003,0.19493,-0.75155
1446,0.828289,0.326334,-0.871296
1447,-0.21542,1.750035,0.327221
1448,-0.686004,0.968986,0.094703
1449,-0.075151,-0.398782,0.939038
1450,1.122229,-0.641053,-0.598502
1451,1.098329,-0.804239,-0.524964
1452,0.896821,-0.68156,-0.33152
1453,-0.335117,0.453381,0.1016
1454,-0.978215,1.183724,0.358504
1455,-1.130064,0.84407,0.369712
1456,-0.256296,-0.428757,0.150442
1457,0.203547,-0.603049,-0.099905
1458,0.165174,-0.593924,-0.086712
1459,-0.152988,-0.378829,0.184617
1460,-0.311588,0.119429,0.464061
1461,-0.340601,0.131109,0.475917
1462,-0.391206,0.315849,0.44255
1463,-0.343901,0.313575,0.359008
1464,-0.354735,0.338075,0.332679
1465,-0.58013,0.280005,0.69589
1466,-0.956884,0.353818,0.429
1467,-1.203614,0.377456,0.145815
1468,-1.428817,0.323473,0.234323
1469,-1.562552,0.207228,0.485425
1470,-1.425545,0.65912,0.377211
1471,-1.185777,0.595133,0.343367
1472,-0.734019,0.248509,0.376102
1473,-0.205926,0.530122,0.184604
1474,0.495995,1.353485,-0.631111
1475,0.10303,0.867092,0.045775
1476,-0.52426,0.657957,0.334836
1477,-0.628533,0.389545,0.117127
1478,-0.021634,0.541607,-0.01843
1479,0.327141,0.160605,-0.001114
1480,0.41511,-0.111116,0.050728
1481,0.372572,-0.366129,-0.039041
1482,0.393437,-0.452666,-0.083537
1483,0.447794,-0.678335,-0.169883
1484,0.492808,-0.738871,-0.182486
1485,0.515733,-0.731258,-0.210895
1486,0.659485,-0.735305,-0.277084
1487,0.905683,-0.759646,-0.253633
1488,0.931978,-0.711348,-0.214685
1489,0.655453,-0.546314,0.059706
1490,0.167659,-0.287809,0.538298
1491,0.130121,-0.028198,0.977928
1492,-3.127812,2.620204,1.919243
1493,-1.203403,0.53772,0.492074
1494,-0.72179,0.036732,0.274502
1495,0.460162,-0.201955,0.218703
1496,0.912584,0.427843,-0.637888
1497,0.734497,0.52564,-1.178498
1498,-0.235571,0.814747,0.255665
1499,0.394767,-0.520244,1.336253
1500,0.404076,-0.517667,1.335465
1501,1.130953,-0.518421,-0.754532
1502,1.179113,-0.799585,-0.4149
1503,1.068506,-0.648219,-0.250068
1504,-0.140603,0.70027,-0.051335
1505,-1.167566,0.797885,0.475745
1506,-1.193748,0.805796,0.498467
1507,-0.102395,-0.51636,0.019562
1508,0.198892,-0.493075,-0.212251
1509,0.159337,-0.483543,-0.201571
1510,-0.156039,-0.128043,0.261164
1511,-0.253975,0.070833,0.34966
1512,-0.372662,0.308271,0.41098
1513,-0.719694,0.043183,0.534154
1514,-0.635437,0.179246,0.196528
1515,-0.633742,0.354163,0.268673
1516,-0.667825,0.42847,0.708358
1517,-0.987917,0.480748,0.531794
1518,-1.115842,0.505356,0.279493
1519,-1.272744,0.420285,0.048499
1520,-1.582928,0.436972,0.565365
1521,-1.581253,0.655228,0.633585
1522,-0.869634,0.268751,0.279925
1523,-0.62696,0.140283,0.076292
1524,-0.451929,0.245329,-0.073216
1525,0.358009,1.568834,-0.444052
1526,0.253494,0.930529,-0.231957
1527,-0.220454,0.620282,0.050019
1528,-0.728859,0.314387,0.195068
1529,-0.43392,0.447334,0.028251
1530,0.00616,0.60523,-0.054777
1531,0.370975,-0.042326,0.032387
1532,0.333795,-0.343444,-0.102938
1533,0.357239,-0.406827,-0.139805
1534,0.425432,-0.572015,-0.188529
1535,0.524267,-0.683228,-0.20996
1536,0.545889,-0.686074,-0.222373
1537,0.629374,-0.765099,-0.242472
1538,0.912783,-0.863006,-0.264557
1539,1.022467,-0.824892,-0.194729
1540,1.011285,-0.648366,0.018613
1541,0.440092,-0.368217,0.319631
1542,0.276274,-0.22063,0.587053
1543,-3.07802,2.545241,3.412557
1544,-1.894693,1.291778,0.395727
1545,-1.131556,0.384457,0.132124
1546,0.216692,-0.47637,-0.331298
1547,0.773128,0.216485,-0.676218
1548,0.95346,0.606344,-0.488405
1549,0.045539,1.111775,0.255643
1550,-0.566237,-0.021748,1.330949
1551,0.081315,-0.210892,0.76879
1552,0.961837,-0.602833,-0.688096
1553,1.33106,-0.659825,-0.001724
1554,1.248369,-0.662085,0.031143
1555,-0.15049,0.514719,0.168328
1556,-0.903033,0.586557,0.533581
1557,-0.929619,0.59631,0.559962
1558,-0.405041,-0.372235,0.258058
1559,0.035341,-0.401533,-0.236755
1560,0.04128,-0.38653,-0.159681
1561,-0.143331,-0.439403,0.135612
1562,-0.252713,0.366521,0.431379
1563,-0.364633,0.378108,0.351008
1564,-0.653765,0.101864,0.37217
1565,-0.767673,0.13749,0.428903
1566,-0.77159,0.231467,0.49131
1567,-0.596781,0.46261,0.7284
1568,-0.925892,0.615831,0.519697
1569,-1.131029,0.550615,0.348657
1570,-1.395842,0.523756,0.47674
1571,-1.534081,0.584226,0.521452
1572,-1.617005,0.655715,0.404307
1573,-0.862425,0.293811,0.400244
1574,-0.513661,0.45976,0.34179
1575,-0.143611,0.995825,-0.027562
1576,0.587341,1.64627,-0.325659
1577,-0.155007,0.939822,0.040456
1578,-0.486766,0.615535,0.200546
1579,-0.110872,0.574291,0.112553
1580,0.360224,0.39536,0.125538
1581,0.52504,0.232328,0.075967
1582,0.353685,-0.368495,-0.152365
1583,0.426681,-0.497956,-0.139239
1584,0.505333,-0.501912,-0.173015
1585,0.636496,-0.651618,-0.20456
1586,0.637638,-0.627949,-0.160684
1587,0.666116,-0.637478,-0.189948
1588,0.886254,-0.859931,-0.305064
1589,0.949669,-0.892664,-0.196606
1590,0.850674,-0.835711,-0.076248
1591,0.107726,-0.711592,0.354478
1592,0.041063,-0.39617,1.703617
1593,-1.147743,0.65072,2.878198
1594,-1.29,1.769577,0.345082
1595,-0.473509,0.280844,0.703623
1596,-0.281148,-0.315751,0.116526
1597,0.834812,-0.288893,-0.825019
1598,0.969998,2.090362,0.22402
1599,0.920031,2.069614,0.196809
1600,-0.791089,0.480792,0.772765
1601,1.242028,-0.520403,0.013511
1602,1.210586,-0.519946,0.055178
1603,1.737126,-0.991134,-0.210109
1604,0.160111,-0.068942,-0.177069
1605,-0.338075,0.28151,0.045323
1606,-1.394924,0.970735,0.528903
1607,-0.867461,-0.268484,0.219796
1608,-0.915405,-0.260019,0.231688
1609,-0.011701,-0.542735,-0.226421
1610,-0.226364,-0.43321,0.305697
1611,-0.29302,-0.27398,0.326755
1612,-0.220535,0.337587,0.146994
1613,-0.362045,0.337413,0.582263
1614,-0.386886,0.228543,0.932764
1615,-0.058535,0.14477,0.653162
1616,-0.187104,0.337851,0.513223
1617,-0.563155,0.521881,0.422218
1618,-1.094162,0.495805,0.376632
1619,-1.246061,0.441551,0.300224
1620,-1.528016,0.128247,0.234467
1621,-1.594692,0.256903,0.696165
1622,-1.487292,0.581655,0.857793
1623,-0.989338,0.630974,0.725012
1624,-0.44889,0.200021,0.264504
1625,-0.08184,0.628065,-0.121419
1626,0.161492,1.172074,-0.3527
1627,0.102096,1.526983,-0.191022
1628,-0.476339,1.198103,-0.026156
1629,-0.943657,0.469757,0.347711
1630,0.148219,0.791131,0.116277
1631,0.415724,0.215109,0.176179
1632,0.370033,-0.055153,0.198213
1633,0.16532,-0.468421,-0.058279
1634,0.2808,-0.646247,-0.134001
1635,0.37432,-0.671692,-0.198247
1636,0.573538,-0.716269,-0.23086
1637,0.660898,-0.825128,-0.261411
1638,0.734292,-0.835487,-0.308461
1639,1.041964,-0.949272,-0.322975
1640,0.969778,-0.682185,-0.114897
1641,0.868674,-0.640094,0.007852
1642,0.189597,-0.271195,0.402773
1643,0.207515,0.004394,0.92189
1644,-2.339159,2.855749,3.24258
1645,-1.261275,0.473058,0.569144
1646,-0.28283,-0.641113,0.645941
1647,-0.016254,-0.967713,0.02249
1648,1.53775,-0.610427,-0.740229
1649,1.780237,0.009876,-0.544332
1650,1.091898,2.556236,1.870151
1651,-1.111329,3.378785,0.206848
1652,-0.366343,0.180292,-0.051026
1653,0.361025,-0.628835,0.30728
1654,2.036611,-1.16858,-0.319558
1655,1.40209,-0.976113,-0.495824
1656,0.64407,-0.519609,-0.533559
1657,-0.614632,0.466561,0.334801
1658,-1.268384,1.201663,0.300697
1659,-0.525732,-0.434514,-0.112626
1660,0.230454,-0.79097,0.151086
1661,0.330064,-0.151534,0.537023
1662,0.036913,0.021769,0.568806
1663,-0.152512,0.325393,0.276292
1664,-0.34806,0.286169,0.162011
1665,-0.54026,0.005304,0.307077
1666,-0.662883,0.284666,0.635774
1667,-0.680531,0.20278,0.682566
1668,-0.841054,0.267569,0.475884
1669,-0.929308,0.36687,0.394875
1670,-1.123251,0.283816,0.29966
1671,-1.212592,0.243808,0.453696
1672,-1.386098,0.572397,0.482647
1673,-1.126676,0.436034,0.385393
1674,-0.569438,0.251378,0.319274
1675,-0.076576,0.636941,0.143507
1676,0.58197,1.350289,-0.448016
1677,0.785661,1.309104,-0.443545
1678,-0.329402,0.84927,0.166765
1679,-0.746967,0.450684,0.20028
1680,-0.453759,0.44279,0.02443
1681,0.468872,0.459958,0.042116
1682,0.628679,0.027401,0.078375
1683,0.595853,-0.218747,-0.060422
1684,0.486941,-0.635013,-0.161845
1685,0.556176,-0.718105,-0.189599
1686,0.617605,-0.70434,-0.191612
1687,0.663705,-0.703684,-0.225638
1688,0.823254,-0.731764,-0.346147
1689,0.820368,-0.732841,-0.357826
1690,1.068732,-0.662224,-0.203083
1691,0.936223,-0.59692,0.033829
1692,0.680141,-0.546797,0.209032
1693,0.433938,0.813973,1.698246
1694,-3.008776,3.424562,2.381139
1695,-1.835014,2.332993,1.278697
1696,0.007397,-0.395118,0.194499
1697,1.045908,0.28907,-0.393821
1698,1.031681,0.28607,-0.346831
1699,0.962822,0.919391,-1.177174
1700,0.078657,0.322395,0.059377
1701,-0.347773,-0.159658,0.449129
1702,0.600433,-0.187307,-0.19089
1703,0.887652,-0.314527,-0.47392
1704,0.892091,-0.263547,-0.364829
1705,0.600898,0.137033,-0.22655
1706,-0.525909,0.573917,0.348941
1707,-0.743746,0.384047,0.439101
1708,-0.595659,-0.099453,0.428975
1709,0.067772,-0.518254,0.113508
1710,0.164861,-0.548959,-0.064363
1711,0.180234,-0.325049,-0.084245
1712,-0.013809,-0.122419,0.233385
1713,-0.142881,0.053883,0.363125
1714,-0.476693,0.343702,0.431401
1715,-0.598299,0.123729,0.52423
1716,-0.639441,0.152284,0.586758
1717,-0.634473,0.196371,0.650781
1718,-0.763886,0.620815,0.637094
1719,-0.901901,0.538384,0.388831
1720,-1.30278,0.318139,0.379593
1721,-1.460584,0.425154,0.40756
1722,-1.531657,0.606859,0.398038
1723,-0.838625,0.319599,0.505211
1724,-0.18762,0.193888,0.694113
1725,0.124825,0.323156,0.410176
1726,0.809545,1.529276,-0.61699
1727,0.440488,0.944548,0.123632
1728,-0.229516,0.70648,0.352444
1729,-0.611757,0.253582,0.123864
1730,0.048341,0.479546,-0.08063
1731,0.311799,0.414769,-0.034404
1732,0.482027,-0.4845,-0.047877
1733,0.507547,-0.685784,-0.027598
1734,0.559163,-0.70962,-0.040221
1735,0.563169,-0.673059,-0.169501
1736,0.608501,-0.583525,-0.159786
1737,0.619547,-0.57689,-0.176123
1738,0.734591,-0.501128,-0.23637
1739,0.950148,-0.5667,-0.23644
1740,0.987998,-0.535914,-0.094867
1741,0.336987,-0.377715,0.263689
1742,0.141791,-0.230042,0.586458
1743,-0.27125,0.986251,2.144032
1744,-2.733227,1.925621,1.276756
1745,-1.17301,0.625246,0.391606
1746,-0.662682,0.085116,0.434648
1747,0.160896,-0.243678,-0.884102
1748,0.650427,0.372686,-1.488068
1749,0.731618,0.991287,-0.902488
1750,0.033849,0.878106,1.414332
1751,1.334256,-0.098386,-0.174821
1752,1.39158,-0.216095,-0.675874
1753,1.445082,-0.578795,-0.539442
1754,0.878403,-0.126398,-0.239934
1755,0.309455,0.321606,-0.217804
1756,-1.086899,0.936717,0.517939
1757,-0.940536,-0.345795,0.102708
1758,-0.595351,-0.650666,0.006696
1759,0.194016,-0.50542,-0.087814
1760,0.202317,-0.459631,0.13945
1761,0.07655,-0.33159,0.208465
1762,-0.123393,0.331415,0.373911
1763,-0.371107,0.134987,0.430892
1764,-0.494979,-0.002895,0.35475
1765,-0.582542,0.084305,0.392191
1766,-0.573234,0.180242,0.502573
1767,-0.538723,0.223661,0.634485
1768,-0.692783,0.309213,0.630288
1769,-0.92312,0.410653,0.358077
1770,-0.998526,0.362493,0.206842
1771,-1.290131,0.149399,0.427402
1772,-1.449912,0.303137,0.472955
1773,-1.422035,0.457013,0.290605
1774,-0.786452,0.323681,0.354548
1775,-0.298002,0.365918,0.337211
1776,0.470271,1.299994,-0.340368
1777,0.864872,1.445946,-0.606001
1778,0.096441,1.070522,0.09039
1779,-0.559506,0.81383,0.411609
1780,-0.396727,0.485065,0.082647
1781,0.106657,0.522627,-0.01042
1782,0.244341,0.296802,-0.038296
1783,0.405363,-0.300267,-0.079624
1784,0.48208,-0.493486,-0.1512
1785,0.555684,-0.519834,-0.22351
1786,0.67121,-0.55359,-0.293869
1787,0.699219,-0.671657,-0.29043
1788,0.717004,-0.706301,-0.309371
1789,0.997537,-0.82024,-0.367721
1790,1.125729,-0.780753,-0.283297
1791,0.914197,-0.640442,-0.088473
1792,0.480968,-0.466822,0.18952
1793,0.263478,0.975413,2.125552
1794,-1.96963,2.485709,3.506185
1795,-1.750641,1.820302,1.087637
1796,-0.102228,-0.396218,0.195026
1797,0.189345,-0.636506,0.195534
1798,0.554139,-0.469082,-0.761595
1799,1.00623,0.589194,-0.844567
1800,0.951189,1.437646,-0.372175
1801,-0.768216,0.420101,1.280251
1802,0.47151,-0.377636,-0.04992
1803,0.944869,-0.364823,-0.851676
1804,1.4843,-0.622978,-0.521297
1805,1.512237,-0.601298,-0.305544
1806,0.724879,-0.014513,0.006513
1807,-0.614926,0.919027,0.46082
1808,-0.901522,0.34423,0.306703
1809,-0.315282,-0.42305,0.09647
1810,0.206276,-0.56577,-0.174057
1811,0.292504,-0.555603,-0.200764
1812,0.0075,-0.450586,-8.10E-05
1813,-0.264972,0.359548,0.376741
1814,-0.324303,0.619826,0.583323
1815,-0.392994,0.544397,0.699027
1816,-0.42411,-0.091026,0.428989
1817,-0.521386,0.004063,0.189036
1818,-0.612038,0.167139,0.193743
1819,-0.762501,0.276592,0.539642
1820,-0.827567,0.393416,0.411235
1821,-0.933549,0.394275,0.258538
1822,-1.275329,0.327463,0.2588
1823,-1.408309,0.301111,0.436732
1824,-1.345772,0.515288,0.430358
1825,-0.869928,0.399098,0.36724
1826,-0.58287,0.074619,0.338079
1827,-0.416131,0.020732,0.240416
1828,0.274431,1.10974,-0.433427
1829,0.457981,1.629162,-0.391675
1830,0.301911,1.169451,-0.207035
1831,-0.472838,0.298775,0.124316
1832,-0.141073,0.437078,0.006181
1833,0.175898,0.593133,-0.03137
1834,0.495152,-0.068728,-0.061749
1835,0.451846,-0.277398,-0.119416
1836,0.472849,-0.475939,-0.146522
1837,0.522817,-0.553988,-0.243857
1838,0.615814,-0.563864,-0.278259
1839,0.665792,-0.622969,-0.290347
1840,0.757509,-0.669157,-0.27114
1841,0.922079,-0.71795,-0.319754
1842,1.107836,-0.646881,-0.224165
1843,0.907733,-0.476124,0.057052
1844,0.639987,-0.360834,0.190665
1845,0.391803,0.192869,0.747003
1846,-1.59294,2.361469,3.19516
1847,-1.271703,0.695908,0.225505
1848,-0.678872,-0.092585,-0.096318
1849,0.291084,-0.719992,-0.26549
1850,0.636518,0.359066,-0.873105
1851,0.51875,0.782583,-0.961246
1852,0.081533,1.991644,-0.312687
1853,-0.071568,-0.400606,1.281892
1854,0.614712,-0.647342,0.99072
1855,1.394129,-0.654206,-0.858971
1856,1.527749,-0.577663,-0.501138
1857,1.300205,-0.350188,-0.215651
1858,-0.114222,0.784558,0.287222
1859,-0.53089,0.988527,0.404849
1860,-0.851972,-0.181908,0.347967
1861,-0.123991,-0.434895,0.08388
1862,0.242608,-0.436101,-0.166995
1863,0.241376,-0.447471,0.099251
1864,-0.092577,-0.063875,0.256444
1865,-0.206696,0.159106,0.249813
1866,-0.313292,0.218749,0.235244
1867,-0.630498,0.119351,0.178397
1868,-0.48067,0.091242,0.366911
1869,-0.388889,0.130102,0.5435
1870,-0.128986,0.216866,0.757361
1871,-0.628875,0.323496,0.44512
1872,-0.845213,0.431553,0.358315
1873,-1.194094,0.306107,0.180501
1874,-1.454461,0.148672,0.40432
1875,-1.530078,0.237896,0.421703
1876,-1.134967,0.610282,0.191371
1877,-0.850957,0.207562,0.409347
1878,-0.58916,0.135724,0.446917
1879,0.472939,1.062793,-0.408972
1880,0.834799,1.395619,-0.255024
1881,0.79044,1.144255,0.073671
1882,-0.393226,0.360319,0.333614
1883,-0.272113,0.350616,0.066341
1884,0.156262,0.518258,0.053641
1885,0.446072,0.113457,0.050856
1886,0.480157,-0.061421,-0.00342
1887,0.425481,-0.402426,-0.0646
1888,0.489507,-0.592892,-0.126464
1889,0.551363,-0.667569,-0.18386
1890,0.596693,-0.680084,-0.2376
1891,0.821395,-0.787543,-0.255291
1892,0.917583,-0.808447,-0.265652
1893,1.002361,-0.788773,-0.22804
1894,0.889397,-0.616444,-0.073353
1895,0.483209,-0.306996,0.263936
1896,0.281195,-0.065854,0.665445
1897,-0.472239,1.902115,2.314751
1898,-1.822301,1.106316,0.490935
1899,-1.15819,0.314149,0.330289
1900,0.084452,-0.740201,0.349487
1901,0.580858,-0.688036,-0.10409
1902,0.881646,-0.375965,-0.428335
1903,0.701671,0.576858,-1.44033
1904,-0.110533,2.339388,-0.006809
1905,-0.776551,1.98587,1.553016
1906,1.149753,-0.326482,-0.247718
1907,1.687089,-0.899602,-0.586827
1908,1.78693,-1.068529,-0.465747
1909,0.843426,-0.373394,-0.20054
1910,-0.079808,0.455022,-0.055756
1911,-0.423428,0.778005,0.286318
1912,-0.98282,0.347103,0.24837
1913,-0.279178,-0.566518,-0.020446
1914,0.064383,-0.561082,-0.187052
1915,0.238046,-0.600125,0.097044
1916,-0.082709,-0.079869,0.396287
1917,-0.17895,0.248403,0.447311
1918,-0.469467,0.391182,0.49601
1919,-0.48126,-0.04437,0.351799
1920,-0.480651,-0.073492,0.28629
1921,-0.628884,0.305784,0.401937
1922,-0.80474,0.32956,0.682595
1923,-0.910414,0.346546,0.538339
1924,-1.076241,0.317136,0.318274
1925,-1.245942,0.281421,0.230596
1926,-1.423343,0.243779,0.394964
1927,-1.478532,0.506367,0.48956
1928,-0.96126,0.45472,0.315096
1929,-0.536169,0.124699,0.247369
1930,-0.253208,0.30252,0.288783
1931,0.367928,1.454351,-0.218527
1932,0.704469,1.646952,-0.363762
1933,0.188789,0.660726,0.127551
1934,-0.332447,0.387474,0.276198
1935,-0.086129,0.554424,0.107807
1936,0.185934,0.314012,0.12753
1937,0.400616,-0.086784,-0.027373
1938,0.39395,-0.2523,-0.07336
1939,0.408142,-0.46134,-0.044857
1940,0.542979,-0.561253,-0.159512
1941,0.573697,-0.572487,-0.186094
1942,0.62526,-0.635569,-0.232005
1943,0.840696,-0.743978,-0.294379
1944,0.955114,-0.791567,-0.298514
1945,0.912265,-0.630695,-0.183345
1946,0.700202,-0.565112,-0.004361
1947,0.27225,-0.223689,0.431251
1948,0.093312,1.060262,2.02053
1949,-1.87063,2.567894,2.923022
1950,-1.894,1.617174,0.841804
1951,-0.352147,-0.324113,0.319632
1952,0.334486,-0.643672,0.161854
1953,0.544464,-0.613688,-0.278135
1954,1.158329,0.057223,-0.791408
1955,0.859833,1.081588,-0.165755
1956,-0.065632,1.801863,0.361012
1957,-0.238636,0.189321,0.84017
1958,1.041226,-0.495046,-0.483386
1959,1.30114,-0.664799,-0.536741
1960,1.410799,-0.831143,-0.294939
1961,0.329334,0.010137,-0.15596
1962,-0.065573,0.38378,0.068314
1963,-1.000347,1.044362,0.505529
1964,-0.720083,-0.175347,0.220231
1965,0.111451,-0.473106,-0.287427
1966,0.490683,-0.595466,-0.208757
1967,0.196274,-0.396352,0.298043
1968,-0.126581,0.205083,0.584051
1969,-0.33414,0.449064,0.487744
1970,-0.602552,0.308891,0.335841
1971,-0.693427,0.036679,0.291775
1972,-0.819756,0.131984,0.439102
1973,-0.952014,0.149039,0.647918
1974,-0.995151,0.383607,0.593391
1975,-0.969768,0.415929,0.2805
1976,-1.046102,0.298522,0.248111
1977,-1.231937,0.329239,0.515757
1978,-1.305514,0.56108,0.85819
1979,-0.705562,0.234784,0.520226
1980,-0.528031,0.132911,0.304889
1981,-0.271692,0.154436,0.211686
1982,0.324976,1.556931,-0.456268
1983,0.560607,1.443463,-0.406229
1984,-0.060278,0.919436,-0.100218
1985,-0.945847,0.306431,0.226416
1986,-0.860617,0.31094,0.209943
1987,0.354813,0.470304,0.036059
1988,0.380754,-0.151801,0.209892
1989,0.372902,-0.327725,0.117506
1990,0.35236,-0.608667,-0.100433
1991,0.434489,-0.626741,-0.212965
1992,0.512932,-0.608068,-0.221397
1993,0.583155,-0.722072,-0.23243
1994,0.649054,-0.740908,-0.275796
1995,0.708025,-0.806915,-0.316566
1996,0.855175,-0.685612,-0.161141
1997,0.772209,-0.677238,-0.061876
1998,0.550203,-0.5904,0.042735
1999,0.25942,0.748489,1.576309
2000,-2.800045,3.259778,2.902077
2001,-2.181513,2.181439,1.520619
2002,-0.335786,-0.48257,0.263429
2003,0.285381,-0.949253,0.072966
2004,0.539273,-0.81557,-0.264908
2005,1.058887,0.429717,-0.938321
2006,0.616211,1.940448,-0.384141
2007,-0.133987,2.015651,-0.190059
2008,-0.003272,-0.420773,0.83982
2009,1.103354,-0.425578,-0.809345
2010,1.30732,-0.599014,-0.746995
2011,1.312809,-0.65903,-0.042053
2012,0.092519,0.122652,0.180494
2013,-0.710737,0.705093,0.455779
2014,-1.08928,0.586878,0.414895
2015,-0.659582,-0.289958,0.221439
2016,-0.045073,-0.438677,-0.180173
2017,0.105442,-0.430464,-0.181164
2018,-0.160162,-0.311907,0.095719
2019,-0.253883,0.075444,0.303595
2020,-0.27512,0.252169,0.65858
2021,-0.31746,0.06806,0.502237
2022,-0.399639,-0.103055,0.308994
2023,-0.506297,0.062392,0.225469
2024,-0.625022,0.281535,0.456383
2025,-0.66638,0.285795,0.536387
2026,-0.777493,0.464837,0.49961
2027,-1.117104,0.390338,0.1389
2028,-1.229774,0.345668,0.14863
2029,-1.423733,0.357287,0.285405
2030,-1.267581,0.744368,0.496423
2031,-1.070217,0.575507,0.522521
2032,-0.66754,0.104181,0.385825
2033,-0.181911,0.239092,0.170125
2034,0.096013,0.619759,-0.139727
2035,0.388586,1.313455,-0.117577
2036,-0.357605,0.562949,0.1005
2037,-0.607956,0.34071,0.232298
2038,-0.256117,0.359322,-0.018192
2039,0.128372,0.387808,-0.034005
2040,0.254196,0.250733,-0.053739
2041,0.280721,-0.338837,-0.032841
2042,0.356559,-0.485826,-0.06643
2043,0.418493,-0.493253,-0.141399
2044,0.524586,-0.440095,-0.238186
2045,0.592342,-0.57093,-0.243088
2046,0.618959,-0.551981,-0.251714
2047,0.793744,-0.583529,-0.271293
2048,1.05135,-0.571424,-0.185772
2049,1.031563,-0.530747,-0.006808
2050,0.598748,-0.365892,0.122943
2051,0.304823,-0.199712,0.384281
2052,-0.35809,1.016247,2.936684
2053,-2.280061,2.341991,1.763565
2054,-0.939483,0.351051,0.316433
2055,0.034354,-0.574501,0.060144
2056,0.547953,-0.481645,-0.232273
2057,0.910034,0.194606,-0.770222
2058,0.811333,0.424518,-0.716784
2059,-0.733485,1.49025,-0.275576
