,userAcceleration.x,userAcceleration.y,userAcceleration.z
0,0.034,0.062463,-0.137596
1,-0.016314,-0.05939,-0.54226
2,0.046536,-0.091782,-0.687688
3,0.210333,-0.200079,-0.716294
4,0.268707,-0.483834,-0.644549
5,0.297029,-0.711064,-0.6386
6,0.326514,-0.797861,-0.566691
7,0.442662,-0.742536,-0.470131
8,0.307515,-0.730764,-0.487369
9,0.204686,-0.715455,-0.481448
10,-0.004966,-0.651471,-0.29701
11,-0.102091,-0.411166,0.174178
12,-0.094959,-0.241964,0.767334
13,0.463782,0.616927,0.977015
14,0.716582,1.642958,0.891992
15,0.234833,0.706879,0.223437
16,-0.047884,-0.510663,0.41692
17,0.074848,-0.531123,0.610091
18,0.062519,-0.530938,0.608008
19,0.164422,1.114863,-1.828807
20,0.425375,1.610657,-0.041054
21,0.493604,0.390641,-0.056399
22,0.877714,-1.185752,0.189183
23,0.122864,-0.276821,-0.583518
24,0.19182,0.174232,-1.107309
25,-0.049638,0.888731,-0.347851
26,-0.138282,0.433555,-0.288205
27,-0.114986,0.206904,-0.250254
28,0.101893,-0.181215,-0.280452
29,0.152561,-0.291523,0.015739
30,0.178956,-0.34592,0.204392
31,0.31983,-0.218418,0.176289
32,0.192413,-0.175863,0.217838
33,0.108512,-0.23068,0.269895
34,0.031672,-0.284832,0.003629
35,-0.112846,-0.172358,0.143378
36,-0.182536,-0.081154,0.170372
37,-0.302475,0.004721,0.175622
38,-0.36769,-0.086869,0.430894
39,-0.295137,0.009505,0.672959
40,-0.225236,0.232909,0.33808
41,-0.427029,0.385813,0.153941
42,-0.602774,0.402186,0.582982
43,-0.413094,0.494241,0.510826
44,-0.303261,0.605774,0.383448
45,-0.493385,0.532659,0.21032
46,0.518679,0.709555,0.091034
47,0.746766,0.820499,-0.247568
48,0.885504,0.820491,-0.0812
49,0.703271,0.595992,0.340874
50,0.672167,0.515466,0.289863
51,0.380768,0.390323,-0.361356
52,-0.001552,0.087631,-0.241937
53,-0.036269,-0.128367,-0.431643
54,0.110223,-0.100469,-0.673528
55,0.271175,-0.272753,-0.531796
56,0.277321,-0.439905,-0.659163
57,0.299134,-0.743576,-0.587471
58,0.410807,-0.864224,-0.576836
59,0.430496,-0.869992,-0.542516
60,0.397707,-0.864161,-0.476946
61,0.203978,-0.748047,-0.386796
62,0.025415,-0.711444,-0.206392
63,-0.077102,-0.579926,0.077814
64,-0.092778,-0.227443,0.838799
65,0.669729,1.316986,1.256541
66,0.896332,2.007746,1.172981
67,0.075205,-0.501339,0.276337
68,0.019427,-0.58363,0.506468
69,0.123164,-0.326169,0.665309
70,0.072008,1.642538,-0.758257
71,0.014891,0.304454,-1.277803
72,0.418404,-0.57423,-0.566839
73,0.896167,-1.099886,0.576399
74,-0.120652,0.144548,-0.862365
75,0.024931,0.69176,-1.418356
76,-0.019904,0.947445,-0.375086
77,-0.105774,0.367676,-0.154616
78,0.006044,0.107342,-0.101983
79,0.268585,-0.202712,-0.206246
80,0.233457,-0.282083,-0.034729
81,0.20005,-0.327589,0.278655
82,0.24021,-0.08081,0.096383
83,0.178255,-0.066891,0.229831
84,0.057495,-0.301367,0.196074
85,0.002128,-0.366195,0.001616
86,-0.084212,-0.312095,0.124341
87,-0.155501,-0.126942,0.130063
88,-0.268923,0.039738,0.140294
89,-0.474526,-0.061962,0.328754
90,-0.412616,0.172582,0.65189
91,-0.203901,0.229253,0.542872
92,-0.306771,0.330039,0.206722
93,-0.515514,0.503622,0.614087
94,-0.608852,0.708955,0.489448
95,-0.604799,0.577921,-0.102325
96,-0.395431,0.700553,0.026917
97,0.115285,0.751792,0.405601
98,0.635069,0.665528,-0.503068
99,0.605277,0.549885,-0.322135
100,0.529625,0.543834,0.272404
101,0.428401,0.618226,-0.380559
102,0.44209,0.482938,-0.461812
103,0.28129,0.159135,-0.15036
104,0.214121,0.029089,-0.615742
105,0.232529,-0.081392,-0.695649
106,0.180578,-0.489807,-0.693464
107,0.199878,-0.837936,-0.629209
108,0.301785,-0.971109,-0.591875
109,0.360702,-0.866311,-0.492857
110,0.347163,-0.811709,-0.471661
111,0.225001,-0.770431,-0.368369
112,0.037431,-0.620167,-0.182053
113,-0.120125,-0.325504,0.33461
114,-0.003043,-0.12022,0.762806
115,0.500146,1.917741,1.123282
116,0.581776,1.716953,0.77877
117,0.32998,0.826984,0.415707
118,0.194053,-0.472669,0.36212
119,0.492782,0.22356,0.886555
120,0.403706,1.175495,0.77479
121,0.015095,0.033248,-2.154636
122,0.971312,-1.426419,-0.827908
123,1.376199,-1.443352,-0.223623
124,-0.062222,0.177014,-0.734503
125,-0.128418,1.433257,-1.311911
126,-0.226193,1.534861,-0.691832
127,-0.257962,0.155947,-0.143911
128,0.220593,-0.432027,-0.100369
129,0.206148,-0.440645,-0.052824
130,0.329279,-0.322698,-0.058227
131,0.111765,-0.091532,0.361191
132,0.097282,-0.092653,0.410672
133,-0.146509,-0.103853,0.104644
134,-0.114361,-0.383148,0.145513
135,-0.004703,-0.395753,-0.044717
136,0.073825,-0.269969,0.063543
137,0.022702,-0.063959,0.23882
138,-0.169986,0.016236,0.281358
139,-0.306154,-0.032832,0.323696
140,-0.215648,0.144826,0.59942
141,-0.207442,0.231707,0.403816
142,-0.418409,0.396849,0.144108
143,-0.709723,0.537011,0.495921
144,-0.630213,0.752859,0.464907
145,-0.439131,0.634641,0.14894
146,-0.115251,0.869209,0.364607
147,0.237359,0.84444,0.441407
148,0.896098,0.651304,-0.212743
149,0.902775,0.488276,0.051248
150,0.697709,0.515758,0.421796
151,0.566036,0.465487,-0.221475
152,0.417706,0.449627,-0.532375
153,0.003527,0.269405,-0.229279
154,0.062997,-0.087425,-0.468109
155,0.217596,-0.256864,-0.712706
156,0.294992,-0.262539,-0.742044
157,0.271252,-0.670602,-0.664391
158,0.240816,-0.863951,-0.492742
159,0.283395,-0.846919,-0.468962
160,0.403096,-0.785543,-0.417849
161,0.273481,-0.707478,-0.412311
162,0.167331,-0.69874,-0.371224
163,-0.04795,-0.522707,-0.193158
164,-0.102774,-0.261994,0.293334
165,-0.048176,-0.124064,0.594793
166,0.624882,1.549835,1.426938
167,0.539232,1.277539,0.765779
168,0.333515,0.621858,0.400553
169,-0.156609,-1.04692,0.510536
170,0.03546,-0.642042,0.181418
171,0.148347,-0.09116,-0.351053
172,0.190477,1.180842,-1.675177
173,0.695534,2.750445,0.297583
174,1.024205,-0.60365,-0.242594
175,1.168775,-1.932131,-0.076402
176,0.249454,-1.076987,0.422051
177,0.188293,0.211695,-1.66337
178,-0.194567,1.541568,-0.668083
179,-0.44701,0.965557,-0.206717
180,-0.218749,-0.07751,-0.090396
181,0.03423,-0.376548,-0.023297
182,0.25791,-0.433846,0.072962
183,0.38608,-0.390084,0.224196
184,0.488175,-0.05204,0.273465
185,0.152622,-0.196669,0.257463
186,0.054421,-0.302737,0.155026
187,-0.028908,-0.251657,0.112564
188,-0.171336,-0.206625,0.225529
189,-0.219416,-0.098792,0.269984
190,-0.348139,-0.067501,0.278382
191,-0.298657,0.185195,0.583504
192,-0.309624,0.18961,0.593582
193,-0.211803,0.223419,0.368527
194,-0.660621,0.324774,0.450272
195,-0.714121,0.373816,0.400369
196,-0.573925,0.641434,0.366902
197,0.139278,0.986121,0.090637
198,0.396425,1.113152,-0.006032
199,0.837788,1.042682,-0.155116
200,0.851333,0.942656,0.190881
201,0.682166,0.635443,0.277579
202,0.53194,0.42482,-0.078484
203,0.383396,0.415581,-0.304852
204,0.171047,0.222709,-0.053981
205,0.20277,0.050919,-0.420797
206,0.278529,-0.450361,-0.4218
207,0.260377,-0.41545,-0.529255
208,0.243448,-0.541962,-0.515847
209,0.147316,-0.905957,-0.621521
210,0.229636,-1.056809,-0.650414
211,0.32123,-0.919561,-0.504341
212,0.231259,-0.86728,-0.4373
213,0.114535,-0.750586,-0.325324
214,-0.084117,-0.297957,0.422751
215,-0.0798,-0.133266,0.837139
216,-0.056345,0.637566,1.179312
217,0.73768,0.906856,0.94316
218,0.806606,0.319537,0.634435
219,0.217849,-0.465498,0.068172
220,0.309096,-0.517288,0.346433
221,0.329359,0.589372,0.560485
222,-0.157406,1.178516,-0.734772
223,0.261754,1.125624,-0.778191
224,0.696672,-0.817602,-0.527223
225,0.998753,-1.11313,0.210518
226,0.078305,-0.297603,-0.60431
227,-0.012047,0.751702,-1.093659
228,-0.163178,0.935149,-0.444416
229,-0.124471,0.439199,-0.285148
230,0.076128,0.046888,-0.238747
231,0.234238,-0.25195,-0.085701
232,0.319483,-0.426481,0.300097
233,0.322333,-0.362418,0.342783
234,0.281202,-0.21321,0.228079
235,0.114557,-0.125511,0.245093
236,0.038539,-0.306729,-0.085741
237,0.02354,-0.305301,-0.0124
238,-0.181051,-0.033663,0.364407
239,-0.271217,0.062591,0.263505
240,-0.353849,0.074807,0.223863
241,-0.422205,0.042924,0.5623
242,-0.310308,0.234997,0.603084
243,-0.262219,0.24167,0.389648
244,-0.50626,0.535758,0.418854
245,-0.56619,0.509076,0.488316
246,-0.561389,0.503334,0.472718
247,-0.494338,0.580869,0.072174
248,0.040735,0.842296,0.613612
249,0.403218,0.710972,0.373673
250,0.853376,0.608457,-0.275518
251,0.704183,0.477962,0.277104
252,0.585199,0.541807,0.374042
253,0.357677,0.547561,-0.187745
254,0.037415,0.231129,-0.03487
255,0.046623,0.110762,-0.105381
256,0.259935,-0.112507,-0.465092
257,0.241034,-0.212748,-0.547081
258,0.26934,-0.259692,-0.585695
259,0.219763,-0.823432,-0.544868
260,0.229166,-0.920595,-0.533697
261,0.324006,-0.915496,-0.482642
262,0.368535,-0.874123,-0.462503
263,0.296417,-0.859614,-0.428422
264,0.201191,-0.840828,-0.374053
265,-0.029632,-0.381248,0.155961
266,-0.045071,-0.156523,0.797834
267,0.339924,0.827484,1.210687
268,0.583248,2.265255,1.125272
269,0.178541,0.282363,0.408176
270,-0.068274,-0.81059,0.291837
271,0.229545,-0.476662,0.513486
272,0.269917,0.658405,0.625422
273,-0.371473,1.771842,-1.684689
274,0.531405,0.43114,-0.893753
275,1.305906,-1.381809,-0.302455
276,1.039862,-1.275355,0.765813
277,0.013825,0.364082,-1.323475
278,0.041478,1.131157,-0.995868
279,-0.22622,0.809232,-0.138002
280,-0.087976,0.051439,-0.007654
281,0.168655,-0.311126,-0.036963
282,0.27755,-0.385858,0.002891
283,0.187669,-0.341613,0.203594
284,0.004506,0.023287,0.053133
285,-0.009071,0.025647,0.095997
286,-0.115832,-0.113682,0.220291
287,0.045344,-0.310962,0.040281
288,0.055616,-0.304443,0.120505
289,-0.073247,-0.146932,0.230566
290,-0.254937,0.040746,0.186393
291,-0.293829,0.060973,0.220391
292,-0.273185,-0.0416,0.508604
293,-0.029945,0.237015,0.65519
294,-0.055824,0.216886,0.406832
295,-0.366684,0.407913,0.245508
296,-0.656232,0.506654,0.451124
297,-0.599832,0.697683,0.350144
298,-0.521583,0.539817,0.097723
299,0.016853,0.908173,0.553956
300,0.315498,0.813403,0.299917
301,0.708314,0.573134,0.001827
302,0.686994,0.494024,0.335439
303,0.618571,0.519166,0.470188
304,0.30681,0.55849,-0.387713
305,0.187832,0.455011,-0.351508
306,0.079086,0.036013,-0.197143
307,0.246343,-0.163225,-0.428646
308,0.245982,-0.326996,-0.457978
309,0.206307,-0.445204,-0.598924
310,0.18424,-0.826076,-0.497629
311,0.224148,-0.908236,-0.416162
312,0.272007,-0.851757,-0.433195
313,0.365177,-0.787771,-0.452592
314,0.254107,-0.711406,-0.392249
315,0.101844,-0.642153,-0.301243
316,0.058513,-0.516735,-0.005331
317,0.086933,-0.2841,0.450619
318,0.018839,0.556344,0.920948
319,0.111518,1.453424,1.412232
320,0.579489,0.615283,0.845844
321,0.384052,-0.333317,0.262747
322,0.458017,-0.375021,0.247296
323,0.538537,0.510841,0.461376
324,0.072533,1.336941,-0.606364
325,0.000539,0.885903,-0.846505
326,0.628506,-1.11777,-0.658995
327,1.015014,-1.290069,0.343026
328,0.010386,-0.036709,-0.547678
329,0.051619,0.958565,-1.174035
330,-0.177999,0.964825,-0.469875
331,-0.189653,0.302013,-0.063501
332,0.220789,-0.241439,-0.054631
333,0.275661,-0.279141,-0.07139
334,0.233228,-0.314712,0.057924
335,0.115123,-0.17775,0.189629
336,0.06354,-0.04251,0.100673
337,-0.024308,-0.037649,0.205508
338,0.04624,-0.331435,0.029713
339,0.062329,-0.413211,0.053415
340,-0.048003,-0.278071,0.214111
341,-0.13533,0.03016,0.218767
342,-0.229813,0.011899,0.249482
343,-0.359524,-0.062283,0.37746
344,-0.173804,0.232165,0.690159
345,-0.249537,0.320821,0.237308
346,-0.572056,0.536486,0.297095
347,-0.696566,0.541739,0.521886
348,-0.741625,0.70814,0.359064
349,-0.616897,0.609237,-0.021718
350,-0.102609,0.737032,0.527118
351,0.194531,0.720086,0.470567
352,0.670815,0.63314,-0.457533
353,0.591365,0.518962,0.115461
354,0.462955,0.680089,0.408441
355,0.397558,0.646463,-0.284098
356,0.288641,0.45479,-0.132689
357,0.177013,0.07953,-0.210589
358,0.12402,-0.038075,-0.570697
359,0.166994,-0.317314,-0.579927
360,0.187474,-0.442817,-0.626692
361,0.187168,-0.720638,-0.582841
362,0.225893,-0.907778,-0.539032
363,0.33459,-0.866636,-0.514466
364,0.363718,-0.82034,-0.523572
365,0.260171,-0.781781,-0.545641
366,0.142242,-0.728048,-0.432113
367,0.055125,-0.54318,-0.033023
368,0.036863,-0.198497,0.597956
369,0.542741,0.244176,1.101165
370,0.602612,2.195728,0.974926
371,-0.010842,-0.05527,0.42845
372,-0.081773,-0.711435,0.479491
373,-0.147887,-1.116598,0.608497
374,0.305834,0.855929,0.183261
375,0.199049,1.248723,-0.806055
376,0.547122,1.563891,-1.08951
377,1.390057,-1.197402,-0.231279
378,1.395732,-1.367413,0.233373
379,-0.021171,-0.51266,-0.275333
380,-0.040621,1.1106,-0.769166
381,-0.188016,1.26237,-0.3018
382,-0.329482,0.604353,-0.231356
383,-0.04028,-0.129778,-0.102047
384,0.039004,-0.246478,-0.097693
385,0.207544,-0.366501,0.021342
386,0.346795,-0.351236,0.291495
387,0.334145,-0.234511,0.255243
388,0.042235,-0.172545,0.212956
389,0.080453,-0.277739,0.155394
390,0.122888,-0.312344,0.003662
391,0.050683,-0.228076,0.266251
392,-0.164072,0.033476,0.233358
393,-0.268607,0.198943,0.248095
394,-0.456841,-0.016553,0.670594
395,-0.289828,0.243522,0.782912
396,-0.105566,0.259353,0.615359
397,-0.393159,0.417707,0.232779
398,-0.754601,0.392631,0.52204
399,-0.774073,0.433806,0.557065
400,-0.480914,0.569192,0.231669
401,-0.36621,0.652271,0.021212
402,0.265053,0.722165,0.651804
403,0.698005,0.677601,-0.172483
404,0.761083,0.653959,-0.293868
405,0.650983,0.575151,0.356592
406,0.438785,0.611101,0.27217
407,0.310722,0.517193,-0.382633
408,-0.012692,0.243603,-0.035603
409,0.095025,-0.009915,-0.526069
410,0.156902,-0.121967,-0.526678
411,0.198799,-0.205285,-0.598355
412,0.31926,-0.436358,-0.599808
413,0.319025,-0.777357,-0.492186
414,0.344285,-0.820564,-0.524
415,0.407922,-0.863252,-0.456935
416,0.350787,-0.863013,-0.46775
417,0.261754,-0.846612,-0.399331
418,0.052433,-0.645524,-0.095811
419,-0.040749,-0.39816,0.529946
420,0.058584,-0.360347,0.832974
421,0.633737,1.856756,1.25066
422,0.153676,1.197563,0.729577
423,0.174742,1.208231,0.707129
424,-0.251645,-0.775784,0.459718
425,0.011069,0.157501,0.412641
426,-0.003851,0.604499,0.233518
427,-0.32926,1.116383,-2.019505
428,0.928749,0.072689,-0.091711
429,1.086633,-0.868029,-0.227339
430,0.935428,-1.215221,0.321171
431,0.175979,0.238665,-1.220686
432,0.189398,0.646561,-0.912734
433,-0.008493,0.466558,-0.157722
434,0.039311,0.261391,-0.151006
435,0.094787,0.052405,-0.152725
436,0.181617,-0.251276,-0.010037
437,0.123475,-0.338103,0.051674
438,0.050484,-0.355307,0.249473
439,0.136121,-0.091852,0.290843
440,0.07824,-0.154258,0.323661
441,0.010197,-0.210078,0.200338
442,-0.048755,-0.256451,0.025012
443,-0.080063,-0.189241,0.256195
444,-0.062254,-0.08418,0.342226
445,-0.127779,-0.102126,0.398299
446,-0.252713,0.073111,0.554033
447,-0.156306,0.21641,0.461308
448,-0.186537,0.323429,0.28195
449,-0.452763,0.430729,0.478097
450,-0.586934,0.443899,0.458361
451,-0.605854,0.648766,0.326987
452,-0.558202,0.59122,0.112871
453,-0.288531,0.719415,0.203684
454,0.782507,0.786037,0.010881
455,0.927144,0.754836,-0.222704
456,0.894087,0.647676,-0.002056
457,0.509102,0.58659,0.306973
458,0.250281,0.571192,-0.371031
459,0.179861,0.511858,-0.21828
460,0.153565,-0.011802,-0.233421
461,0.220914,-0.11799,-0.483244
462,0.23525,-0.187354,-0.533521
463,0.194493,-0.397621,-0.551275
464,0.138004,-0.676552,-0.580369
465,0.29689,-0.887629,-0.517295
466,0.425029,-0.878639,-0.509378
467,0.471223,-0.857357,-0.450174
468,0.366641,-0.84657,-0.388241
469,0.172003,-0.80102,-0.306341
470,-0.028487,-0.540539,0.010903
471,-0.132363,-0.270175,0.592105
472,-0.065478,0.639844,1.099724
473,0.517876,1.420733,1.109229
474,0.429018,0.690896,0.643552
475,0.244261,-0.519817,0.191463
476,0.260752,-0.096457,0.59784
477,0.439342,0.382374,0.741441
478,0.026869,1.457287,-0.346581
479,0.734294,0.047466,-0.894395
480,1.025394,-1.23205,-0.625686
481,1.4523,-1.560122,0.424547
482,-0.078477,0.487214,-1.550736
483,-0.00577,0.815649,-1.627368
484,-0.214482,1.333812,-0.397759
485,-0.098045,-0.035913,0.115867
486,0.155834,-0.364946,0.035357
487,0.252202,-0.374422,-0.111221
488,0.246854,-0.346135,-0.023163
489,0.012193,-0.156161,0.388251
490,-0.070707,0.034157,0.119152
491,-0.141777,-0.017009,0.151142
492,-0.024849,-0.29835,0.255901
493,0.088974,-0.334887,0.100467
494,0.085891,-0.243361,0.161347
495,-0.055815,-0.055419,0.275183
496,-0.210899,0.075909,0.362891
497,-0.247676,0.038149,0.397806
498,-0.218509,0.1405,0.499755
499,-0.333823,0.323275,0.342538
500,-0.411761,0.460256,0.250753
501,-0.498261,0.505081,0.332802
502,-0.374895,0.712975,0.561306
503,-0.46774,0.568989,0.277669
504,-0.558284,0.615355,-0.027682
505,-0.073635,0.805562,0.640953
506,0.613676,0.63445,-0.036901
507,0.756324,0.613367,-0.341795
508,0.662365,0.401963,0.34043
509,0.358902,0.563148,-0.060368
510,0.377038,0.567474,-0.119585
511,0.064791,-0.012967,-0.11305
512,0.122766,-0.060322,-0.462306
513,0.149921,-0.04679,-0.510224
514,0.142333,-0.194294,-0.592364
515,0.172538,-0.704384,-0.532393
516,0.167448,-0.684873,-0.581699
517,0.344125,-0.852153,-0.440934
518,0.397235,-0.854567,-0.370144
519,0.341275,-0.782108,-0.362418
520,0.162249,-0.716257,-0.327972
521,0.017916,-0.585432,-0.059441
522,-0.009038,-0.460476,0.229071
523,-0.020714,-0.219007,0.727705
524,0.430043,1.319672,1.562445
525,0.732579,1.629173,1.32361
526,0.360507,0.533697,0.370593
527,0.233247,-0.334558,0.378902
528,0.315067,-0.032739,0.461219
529,0.002548,1.5016,-1.826101
530,0.479032,0.797697,-1.074077
531,0.6882,-0.429902,-0.553042
532,1.019335,-1.255201,0.413338
533,-0.138175,-0.051911,-0.61076
534,-0.015691,0.934547,-1.15963
535,-0.122451,0.894071,-0.290367
536,-0.127503,0.235527,-0.003764
537,0.164594,-0.292129,0.093642
538,0.288115,-0.358621,-0.066554
539,0.192087,-0.226825,0.073462
540,0.010469,-0.151763,0.353206
541,-0.046415,-0.018496,0.140364
542,-0.063042,-0.080222,0.097531
543,0.067003,-0.28944,0.295844
544,0.193653,-0.323071,0.072157
545,0.14558,-0.229956,0.241718
546,-0.160873,0.009861,0.242829
547,-0.350065,-0.010287,0.274253
548,-0.319141,-0.110722,0.449357
549,-0.140591,0.202577,0.646829
550,-0.076815,0.231161,0.330793
551,-0.569173,0.498383,0.410697
552,-0.646962,0.456182,0.528377
553,-0.537084,0.600638,0.519233
554,-0.631528,0.537583,0.123203
555,-0.55992,0.620887,0.032176
556,0.038184,0.876841,0.52271
557,0.538581,0.764918,-0.384116
558,0.518299,0.755322,-0.237376
559,0.5094,0.529954,0.464795
560,0.513416,0.45721,-0.076928
561,0.508472,0.342801,-0.226827
562,0.304623,-0.028919,-0.104934
563,0.100409,-0.063292,-0.496762
564,0.108943,-0.042535,-0.567037
565,0.116722,-0.248266,-0.698737
566,0.178368,-0.697824,-0.585329
567,0.190011,-0.804799,-0.563554
568,0.312147,-0.902594,-0.460027
569,0.36401,-0.836964,-0.358925
570,0.30029,-0.774963,-0.338603
571,0.17119,-0.700431,-0.319602
572,0.022078,-0.438513,0.027741
573,0.009536,-0.307184,0.330616
574,0.049437,0.540288,1.108604
575,0.108713,1.315138,1.441095
576,0.749363,1.381041,1.135096
577,0.159692,-0.571758,0.18521
578,0.036177,-0.979867,0.172654
579,0.353104,-0.268552,0.35457
580,0.102476,1.162076,-1.523483
581,0.388077,1.64583,-0.729288
582,0.394373,1.497452,0.231247
583,0.963341,-1.285414,-0.383654
584,0.426179,-0.95037,0.349108
585,-0.045677,-0.386185,-0.241216
586,-0.051853,0.887746,-0.728914
587,-0.158624,0.632689,-0.114766
588,-0.023378,-0.000893,0.124086
589,0.189438,-0.295169,0.009986
590,0.23608,-0.24044,0.004754
591,0.150443,-0.278457,0.113242
592,0.112387,-0.186355,0.322263
593,0.113857,-0.036266,0.202505
594,0.051546,-0.105231,0.180135
595,0.054562,-0.244585,0.074581
596,0.015402,-0.225367,0.125293
597,-0.073575,-0.18639,0.185963
598,-0.182698,-0.110106,0.287948
599,-0.330869,-0.093705,0.350441
600,-0.29134,0.220155,0.70179
601,-0.072745,0.28665,0.50134
602,-0.30358,0.548031,0.49559
603,-0.47084,0.534001,0.618349
604,-0.575081,0.534956,0.528298
605,-0.812774,0.460079,0.28462
606,-0.817454,0.49205,0.154488
607,-0.022437,0.80468,0.386172
608,0.572452,0.947011,-0.347147
609,0.579533,0.860077,-0.176146
610,0.466622,0.504946,0.471449
611,0.431403,0.53443,-0.157982
612,0.384221,0.474625,-0.307257
613,0.325418,0.007847,-0.041979
614,0.198787,-0.026147,-0.473148
615,0.230178,-0.022775,-0.540162
616,0.246221,-0.472573,-0.519434
617,0.263219,-0.565572,-0.505177
618,0.233434,-0.780201,-0.438079
619,0.27562,-0.834584,-0.393288
620,0.301573,-0.820481,-0.378186
621,0.274755,-0.808368,-0.355046
622,0.151237,-0.738199,-0.251755
623,0.022491,-0.625654,0.085864
624,-0.07959,-0.509481,0.375579
625,0.057686,0.18384,1.031261
626,0.694489,1.896206,1.317115
627,0.706109,2.001895,0.89791
628,-0.115175,-0.634527,0.310717
629,0.303629,-0.788718,0.442419
630,0.432659,0.003697,0.377007
631,0.198772,1.509911,-1.591557
632,0.568776,0.487634,-0.162744
633,0.692156,-0.607199,-0.355069
634,0.502375,-0.940829,0.477096
635,-0.087387,0.227636,-1.327531
636,-0.047745,0.739635,-1.225904
637,-0.25902,0.707409,-0.264057
638,-0.150927,0.109859,-0.101085
639,0.085047,-0.208072,-0.052388
640,0.263171,-0.266727,-0.157645
641,0.380872,-0.234053,0.283099
642,0.313871,-0.252554,0.383366
643,0.218261,-0.082896,0.213772
644,-0.030418,-0.21785,0.226877
645,-0.063278,-0.277228,0.218528
646,-0.009565,-0.250776,0.072476
647,-0.011956,-0.166002,0.267785
648,-0.149135,-0.03494,0.181288
649,-0.346892,-0.124043,0.380382
650,-0.456288,0.145235,0.712949
651,-0.238039,0.197777,0.524991
652,-0.158548,0.366006,0.166077
653,-0.376229,0.562113,0.616824
654,-0.480979,0.592265,0.705347
655,-0.559453,0.714452,0.301449
656,-0.505272,0.61455,0.254159
657,-0.145306,0.747791,0.571788
658,0.535791,0.576604,0.047004
659,0.631936,0.561954,-0.103074
660,0.433672,0.553875,0.403144
661,0.25236,0.558596,0.015068
662,0.215981,0.476876,-0.164446
663,0.178032,0.13882,-0.188599
664,0.150961,0.023327,-0.390749
665,0.191154,-0.049645,-0.509304
666,0.250708,-0.257949,-0.557996
667,0.301231,-0.63459,-0.497039
668,0.310405,-0.772809,-0.548454
669,0.373113,-0.892332,-0.411374
670,0.343353,-0.867169,-0.443783
671,0.37337,-0.78294,-0.399891
672,0.268118,-0.742415,-0.35581
673,0.13983,-0.654888,-0.146537
674,0.075592,-0.5285,0.114531
675,0.040746,-0.095381,0.977604
676,0.511386,1.349907,1.446798
677,0.579712,1.51024,0.859857
678,0.263163,0.688257,0.469428
679,0.023322,-0.947794,0.399614
680,0.384244,0.147388,0.499491
681,0.372067,0.682834,0.333842
682,0.035222,1.276336,-1.604546
683,0.652921,-0.258858,-0.061259
684,0.905111,-0.991117,-0.314908
685,0.476369,-0.839345,0.548662
686,-0.051495,0.313618,-1.220951
687,0.00588,0.709611,-1.225331
688,-0.177942,0.75399,-0.216896
689,-0.073528,0.088974,0.008162
690,0.018264,-0.153812,0.004598
691,0.243015,-0.285361,0.047832
692,0.186507,-0.237647,0.265347
693,0.173733,-0.235958,0.31432
694,0.161941,0.01856,0.11809
695,0.089662,-0.156066,0.251131
696,0.060772,-0.305223,0.164967
697,0.029126,-0.234283,0.072359
698,-0.068159,-0.161061,0.204663
699,-0.151163,0.052374,0.267075
700,-0.354316,-0.076867,0.288805
701,-0.495616,0.190814,0.742806
702,-0.391112,0.301038,0.646184
703,-0.238441,0.282248,0.326115
704,-0.513624,0.537392,0.673529
705,-0.55016,0.620464,0.617623
706,-0.580508,0.666713,0.321993
707,-0.330092,0.760295,0.336008
708,-0.022935,0.762464,0.475079
709,0.488927,0.59656,-0.189488
710,0.611242,0.603378,0.084959
711,0.462016,0.664535,0.467619
712,0.338213,0.517508,-0.364351
713,0.30862,0.408721,-0.286491
714,0.222847,0.237804,-0.104881
715,0.128004,0.017269,-0.423088
716,0.214112,-0.141065,-0.524088
717,0.219534,-0.210837,-0.612267
718,0.257521,-0.670179,-0.524092
719,0.277359,-0.911337,-0.478964
720,0.310273,-0.948287,-0.45351
721,0.395716,-0.776577,-0.460395
722,0.330024,-0.732327,-0.497487
723,0.257065,-0.723794,-0.450547
724,0.145433,-0.638445,-0.097984
725,0.087043,-0.392249,0.456767
726,0.142383,-0.339056,0.797913
727,0.389496,1.229184,1.141321
728,0.223406,1.796328,0.988318
729,0.127482,0.778969,0.663802
730,-0.015384,-0.70418,0.49783
731,0.124956,0.194037,0.521011
732,0.089364,0.900203,0.076352
733,0.213513,0.484681,-1.995953
734,1.186296,0.023547,-0.34621
735,1.500883,-0.862909,0.279913
736,0.363002,-0.663544,0.078159
737,0.029471,0.426033,-1.42108
738,-0.17596,1.039445,-0.551437
739,-0.292218,0.670121,-0.174103
740,0.049053,-0.169506,-0.065829
741,0.135084,-0.290647,0.018206
742,0.307476,-0.344206,0.133006
743,0.341184,-0.315716,0.250061
744,0.269823,-0.160809,0.236043
745,0.185553,-0.008906,0.257069
746,0.031325,-0.329993,0.056931
747,0.056426,-0.340744,-0.038691
748,0.061261,-0.245318,0.170886
749,-0.094099,0.031393,0.318191
750,-0.200089,0.064534,0.240989
751,-0.442028,-0.133663,0.282151
752,-0.278807,0.288343,0.636866
753,-0.185324,0.346068,0.473519
754,-0.276894,0.491448,0.269449
755,-0.460118,0.469002,0.68691
756,-0.355553,0.872357,0.497296
757,-0.457916,0.484949,0.318713
758,-0.44688,0.563975,0.136373
759,0.324923,0.56721,0.48332
760,0.639855,0.504269,-0.36527
761,0.611022,0.525683,0.063117
762,0.432547,0.63127,0.569526
763,0.180936,0.632617,-0.196381
764,0.157193,0.643781,-0.421361
765,0.070942,0.014353,-0.049157
766,0.116073,-0.032525,-0.441085
767,0.142809,-0.157135,-0.490351
768,0.137145,-0.141121,-0.649154
769,0.265373,-0.665653,-0.540044
770,0.318255,-0.813179,-0.558719
771,0.42518,-0.886517,-0.451105
772,0.437363,-0.863197,-0.433008
773,0.396783,-0.836212,-0.380381
774,0.341746,-0.807184,-0.379683
775,0.129337,-0.5947,0.059284
776,0.017777,-0.400356,0.428723
777,-0.027755,-0.328511,0.832098
778,0.342009,1.539526,1.365232
779,0.343305,0.407364,0.571323
780,0.199088,-0.327139,0.42917
781,0.091428,-0.970779,0.283232
782,0.426177,0.725425,0.389856
783,0.245253,1.172353,-0.306855
784,0.322737,1.664857,-1.277319
785,0.802629,-0.390016,-0.197682
786,1.219174,-1.471723,-0.085238
787,0.167691,-0.822104,0.258315
788,-0.029447,0.380574,-1.438439
789,-0.127968,1.164337,-0.440436
790,-0.241211,0.62578,-0.165936
791,0.074126,-0.152054,-0.079196
792,0.207735,-0.274322,-0.038738
793,0.375664,-0.315671,0.110514
794,0.315778,-0.282997,0.367807
795,0.2491,-0.137021,0.251054
796,0.079762,0.04239,0.087593
797,0.017095,-0.245507,0.120339
798,0.052597,-0.262862,-0.019709
799,-0.172479,-0.049022,0.306697
800,-0.245629,0.015549,0.291495
801,-0.399923,-0.105762,0.294976
802,-0.415601,0.059969,0.503434
803,-0.369276,0.250587,0.669157
804,-0.224581,0.292863,0.308122
805,-0.361952,0.530306,0.456861
806,-0.435473,0.392865,0.730249
807,-0.386025,0.668512,0.435354
808,-0.585972,0.444735,0.26764
809,-0.355584,0.501675,0.28102
810,0.315888,0.583355,0.284685
811,0.521853,0.63935,-0.382037
812,0.513244,0.669352,0.028801
813,0.411999,0.691452,0.454569
814,0.315882,0.707051,-0.20378
815,0.157757,0.485844,-0.040261
816,0.107799,0.06155,-0.105601
817,0.189621,0.049878,-0.408597
818,0.246926,-0.120447,-0.559431
819,0.258558,-0.513255,-0.536165
820,0.34294,-0.786084,-0.57891
821,0.363556,-0.871161,-0.477898
822,0.341551,-0.89841,-0.455658
823,0.363772,-0.93051,-0.385923
824,0.269122,-0.756579,-0.362362
825,0.214475,-0.741818,-0.301767
826,0.148841,-0.590195,0.110542
827,0.135973,-0.252051,0.629329
828,0.42862,0.332164,0.939516
829,0.445284,2.269132,1.043006
830,0.178968,0.625506,0.562682
831,0.055475,-0.720638,0.586851
832,-0.132359,-0.689352,0.609062
833,0.132628,0.722771,0.38604
834,0.054872,1.259593,-1.28782
835,0.497657,1.165182,-0.567235
836,0.996794,-0.882049,-0.442705
837,1.184595,-1.21778,0.303203
838,0.009793,-0.407288,-0.326186
839,-0.185888,0.886704,-0.615519
840,-0.229532,0.853247,-0.235879
841,-0.166127,0.312971,-0.131731
842,0.03389,-0.214172,-0.048301
843,0.112097,-0.296787,-0.008169
844,0.353642,-0.27451,0.145414
845,0.361074,-0.247971,0.34828
846,0.370421,-0.165028,0.378211
847,0.034053,-0.124218,0.238853
848,-0.073988,-0.19508,0.217826
849,-0.122314,-0.239977,-0.055751
850,-0.032912,-0.13203,0.16661
851,-0.061967,-0.025998,0.302436
852,-0.11854,0.092685,0.37665
853,-0.259375,-0.039982,0.459342
854,-0.222617,0.312069,0.604675
855,-0.196018,0.273903,0.335327
856,-0.418358,0.466606,0.379855
857,-0.565034,0.424889,0.631979
858,-0.343473,0.540702,0.419239
859,-0.491068,0.485315,0.465488
860,-0.435812,0.464823,0.212353
861,0.262913,0.63569,0.068835
862,0.455587,0.776191,-0.452214
863,0.53792,0.805196,0.157162
864,0.441486,0.758744,0.402903
865,0.455915,0.692651,-0.314792
866,0.345106,0.187239,0.138123
867,0.352904,0.002809,-0.030702
868,0.31429,0.001307,-0.44179
869,0.208475,-0.332923,-0.542584
870,0.23117,-0.401073,-0.577589
871,0.260672,-0.596902,-0.649321
872,0.356298,-0.877479,-0.495255
873,0.368847,-0.903199,-0.466076
874,0.433355,-0.900843,-0.394956
875,0.301239,-0.775642,-0.388422
876,0.241913,-0.724162,-0.279053
877,0.177755,-0.598284,0.081551
878,0.196099,-0.235852,0.697267
879,0.213072,0.137168,0.765073
880,-0.159392,1.70437,1.053953
881,0.123181,0.027424,0.616087
882,0.115991,-0.663069,0.672778
883,0.014963,-1.111987,0.612864
884,0.317404,1.057601,-0.780188
885,0.568074,1.842713,-1.637741
886,0.674079,0.853897,0.398381
887,0.962734,-0.593001,-0.525183
888,1.191251,-1.499601,0.324349
889,0.1367,0.010504,-1.237498
890,-0.104571,1.367347,-0.570088
891,-0.251675,1.472855,-0.281938
892,-0.126631,0.102339,-0.249175
893,0.050102,-0.267743,-0.102075
894,0.150235,-0.380988,-0.071828
895,0.44886,-0.338339,0.369365
896,0.607969,-0.056056,0.36249
897,0.581228,0.100225,0.152732
898,0.131527,-0.160899,-0.036356
899,0.073446,-0.144029,0.098082
900,0.039296,-0.217853,0.377095
901,-0.045253,-0.223642,0.454718
902,-0.280273,0.029277,0.007287
903,-0.423487,0.034097,0.539705
904,-0.434597,0.119971,0.585812
905,-0.447536,0.474266,0.396405
906,-0.65268,0.785837,0.444202
907,-0.748737,0.566303,0.832724
908,-0.55094,0.700566,0.490739
909,-0.642916,0.609423,-0.008176
910,-0.203099,1.050701,0.149784
911,0.877071,0.8733,-0.015514
912,0.941827,0.709397,-0.040004
913,1.000523,0.548461,0.219493
914,0.97577,0.568244,0.303394
915,0.843793,0.677522,-0.392012
916,0.389417,0.5696,-0.233847
917,0.115359,0.203467,-0.460308
918,0.228866,0.004803,-0.785719
919,0.263522,-0.317948,-0.631926
920,0.216254,-0.905218,-0.614118
921,0.212321,-1.051671,-0.695588
922,0.393787,-1.076178,-0.706742
923,0.278929,-0.937807,-0.628685
924,0.210401,-0.930859,-0.604168
925,0.04801,-0.873925,-0.505056
926,-0.083241,-0.765688,0.060303
927,-0.031792,-0.705129,0.419919
928,0.378341,-0.480087,1.276298
929,0.497777,2.532814,1.176344
930,-0.024132,1.728778,0.002225
931,0.28683,-0.545034,0.154817
932,0.482354,-1.091065,0.409505
933,0.464166,-0.051761,0.500025
934,0.078687,1.035246,-0.198772
935,0.298646,1.192189,-1.734394
936,1.238446,0.280577,-0.437784
937,1.363631,-1.508762,0.093004
938,0.230096,-0.900328,0.256147
939,-0.268369,0.40501,-1.489176
940,-0.212171,0.993247,-0.342832
941,-0.227339,0.658168,-0.192055
942,-0.191279,0.332595,-0.084644
943,0.073539,-0.418218,0.010903
944,0.279859,-0.482726,0.142636
945,0.383696,-0.405741,0.304241
946,0.32561,-0.022177,0.149345
947,0.184775,0.031336,0.168468
948,0.089129,-0.102945,0.312338
949,0.031777,-0.34585,0.079812
950,0.04381,-0.210278,0.106406
951,0.008456,-0.150152,0.306616
952,-0.164947,0.065242,0.380451
953,-0.251694,0.027798,0.448892
954,-0.247738,0.156904,0.572528
955,-0.214265,0.217846,0.549212
956,-0.391899,0.163505,0.26709
957,-0.756384,0.430581,0.246556
958,-0.856847,0.477579,0.401698
959,-0.504802,0.559641,0.185733
960,-0.457536,0.67984,-0.032287
961,0.181236,0.995816,0.477691
962,1.198494,0.752588,0.130306
963,1.221791,0.699344,-0.097272
964,1.075878,0.523827,0.114391
965,0.674512,0.47569,0.414904
966,0.609846,0.448607,-0.07172
967,0.27688,0.45732,-0.258741
968,-0.104261,-0.054002,-0.27529
969,-0.077267,-0.148832,-0.498827
970,0.059874,-0.388704,-0.557904
971,0.151845,-0.644562,-0.543168
972,0.15774,-0.786814,-0.548097
973,0.439844,-0.909614,-0.457107
974,0.495952,-0.840197,-0.430974
975,0.547903,-0.754746,-0.367999
976,0.304756,-0.740286,-0.205313
977,0.136882,-0.719945,-0.081738
978,0.061351,-0.636322,0.124171
979,-0.136724,-0.003928,0.539883
980,0.076277,1.182377,1.314502
981,0.401453,1.54284,1.399095
982,0.494745,0.238817,0.469746
983,0.174717,-0.249676,0.427118
984,-0.005049,-0.564386,0.586828
985,0.076262,-0.661137,0.418853
986,0.305997,-0.525029,-0.844689
987,0.694809,-0.281237,-1.255823
988,0.485308,3.446499,1.025413
989,0.423799,-0.112877,-0.798362
990,0.66183,-1.156853,-0.741997
991,0.422556,-0.960967,0.114512
992,0.345659,0.203409,-1.233848
993,0.120257,1.31874,-0.554236
994,-0.052778,1.260899,-0.277783
995,-0.091398,0.09845,-0.025831
996,0.098018,-0.381049,0.040734
997,0.402985,-0.61625,0.242069
998,0.580433,-0.104588,0.459184
999,0.433515,0.163045,0.394646
1000,0.000202,0.074747,0.002861
1001,-0.259723,-0.253654,0.061964
1002,-0.324473,-0.229473,0.311763
1003,-0.208167,-0.131245,0.487866
1004,-0.271577,0.016585,0.366836
1005,-0.293728,0.044357,0.412381
1006,-0.301553,0.063365,0.879203
1007,-0.344204,0.412497,0.808606
1008,-0.471769,0.444982,0.328643
1009,-0.613201,0.487864,0.341345
1010,-0.571609,0.617678,0.783105
1011,-0.382045,0.820573,0.423367
1012,-0.536963,0.663991,0.123497
1013,0.344004,0.909838,0.417021
1014,0.590103,0.866894,-0.118846
1015,0.718553,0.892545,-0.29623
1016,0.612759,0.662713,0.636506
1017,0.578871,0.628623,0.511104
1018,0.50751,0.430306,-0.227826
1019,0.33252,0.207247,-0.200377
1020,0.075203,-0.01242,-0.4707
1021,0.028931,-0.266464,-0.431269
1022,0.024375,-0.274757,-0.591125
1023,0.127752,-0.584469,-0.661706
1024,0.414479,-1.061639,-0.524804
1025,0.394909,-1.049906,-0.55682
1026,0.40733,-1.05681,-0.417359
1027,0.156946,-0.864993,-0.307777
1028,0.040126,-0.770646,-0.236618
1029,-0.035526,-0.442615,0.280706
1030,0.178669,-0.100647,0.829007
1031,0.883752,1.124869,1.42055
1032,0.462635,1.781683,1.077917
1033,-0.03034,0.324981,0.424001
1034,0.083778,-1.058843,0.676334
1035,0.284238,-0.845787,0.441349
1036,0.290616,0.380392,-0.084183
1037,0.044534,1.448538,-1.654382
1038,0.54138,1.779104,0.077812
1039,1.241094,-1.096178,-0.558537
1040,0.422181,-1.008481,0.526076
1041,-0.170562,-0.151738,-0.571668
1042,-0.110594,0.801103,-1.157753
1043,-0.338485,1.026872,-0.21112
1044,-0.204165,0.216627,-0.096503
1045,-0.014413,-0.267266,0.010799
1046,0.087891,-0.394866,0.076384
1047,0.223016,-0.359612,0.333193
1048,0.278041,-0.240396,0.419226
1049,0.262891,0.032137,0.244172
1050,0.03852,-0.07175,0.332941
1051,-0.008673,-0.327405,0.128946
1052,0.026402,-0.197104,0.204571
1053,-0.004505,-0.018795,0.381242
1054,-0.117996,0.116129,0.389481
1055,-0.501792,0.040861,0.420691
1056,-0.541265,0.201411,0.606344
1057,-0.372938,0.431798,0.662001
1058,-0.37165,0.628801,0.455776
1059,-0.505637,0.651957,0.632648
1060,-0.626857,0.863593,0.528091
1061,-0.64199,0.762033,0.442927
1062,-0.432199,0.71124,0.356731
1063,0.286785,0.650304,0.470085
1064,0.626839,0.584364,-0.331277
1065,0.644116,0.569717,-0.290334
1066,0.431018,0.408936,0.512513
1067,0.234522,0.506178,-0.161758
1068,0.344591,0.493871,-0.46452
1069,0.224146,0.186191,-0.016815
1070,0.11484,0.162502,-0.412917
1071,0.157556,0.046327,-0.526379
1072,0.224799,-0.496297,-0.486229
1073,0.313725,-0.74207,-0.591813
1074,0.315802,-0.850095,-0.590679
1075,0.350811,-0.925819,-0.408882
1076,0.350112,-0.907201,-0.395539
1077,0.282981,-0.908145,-0.358152
1078,0.030401,-0.869818,-0.217615
1079,0.05955,-0.668936,0.193406
1080,0.118915,-0.544499,0.524193
1081,0.421446,0.158721,1.016662
1082,0.289402,1.716708,1.255463
1083,-0.16096,1.552002,0.639522
1084,-0.133279,-0.312393,0.44975
1085,0.41497,-1.108998,0.533679
1086,0.33517,-0.478767,0.392451
1087,0.342727,0.345214,-0.724351
1088,0.883513,2.661474,0.615115
1089,0.858665,1.462322,0.819996
1090,0.94868,-1.481819,-0.712608
1091,0.637282,-1.526331,0.46325
1092,-0.267143,-0.081099,-0.931513
1093,-0.23525,1.14531,-0.89372
1094,-0.410729,1.019446,-0.195712
1095,-0.051384,0.081471,0.072846
1096,0.223677,-0.42975,0.044591
1097,0.374263,-0.498621,0.198145
1098,0.424875,-0.352802,0.368978
1099,0.404862,-0.069039,0.27208
1100,0.090075,-0.052277,0.135909
1101,0.033703,-0.190211,0.164007
1102,0.037565,-0.326417,0.080949
1103,-0.163194,-0.073656,0.496781
1104,-0.215833,-0.021203,0.353621
1105,-0.52522,-0.106618,0.43353
1106,-0.564599,0.05155,0.702543
1107,-0.540057,0.268657,0.863862
1108,-0.230217,0.367192,0.465852
1109,-0.266269,0.401811,0.415657
1110,-0.469365,0.532223,0.708954
1111,-0.49989,0.749743,0.439748
1112,-0.519989,0.685344,0.408184
1113,-0.577928,0.62168,0.217895
1114,0.50983,0.853653,0.103522
1115,0.648092,0.86783,-0.194196
1116,0.739133,0.690979,0.03527
1117,0.53687,0.56477,0.273606
1118,0.488183,0.510019,-0.166446
1119,0.247297,0.194367,-0.241858
1120,-0.01444,-0.031181,-0.262132
1121,-0.017475,-0.026,-0.505608
1122,0.006199,-0.229731,-0.567022
1123,0.180574,-0.47769,-0.585671
1124,0.273213,-0.837329,-0.638762
1125,0.34669,-1.059529,-0.441763
1126,0.334179,-1.039419,-0.362564
1127,0.175022,-0.89274,-0.35497
1128,0.090628,-0.839335,-0.31256
1129,-0.030632,-0.623022,0.013122
1130,-0.052667,-0.43046,0.693211
1131,0.40592,0.019259,1.310629
1132,0.697453,1.724749,1.283201
1133,0.415512,0.87062,0.650233
1134,0.123416,-0.380199,0.238127
1135,0.372176,-0.25284,0.578324
1136,0.67063,1.08944,0.693782
1137,-0.060667,1.659195,-1.309415
1138,0.527872,-0.528768,-0.829377
1139,1.21589,-1.315581,0.558627
1140,0.537183,-0.920313,0.51405
1141,-0.059372,0.57855,-1.277209
1142,-0.157485,1.436464,-0.518057
1143,-0.339637,0.663499,-0.20389
1144,-0.14802,0.005497,0.027269
1145,0.153266,-0.389112,0.055805
1146,0.263801,-0.388786,-0.008478
1147,0.360541,-0.232628,0.318352
1148,0.184349,-0.026666,0.307898
1149,0.131861,0.058888,0.283554
1150,0.023736,-0.113331,0.344031
1151,0.047584,-0.33551,0.305849
1152,0.045564,-0.260701,0.128112
1153,-0.135004,-0.142863,0.285378
1154,-0.276452,-0.018811,0.306669
1155,-0.488158,-0.024392,0.478017
1156,-0.3506,0.411018,0.531867
1157,-0.242769,0.441744,0.381326
1158,-0.230236,0.500371,0.364347
1159,-0.447465,0.548016,0.886199
1160,-0.49645,0.537988,0.8011
1161,-0.466943,0.571719,0.353838
1162,-0.506986,0.572154,0.202167
1163,-0.272442,0.682333,0.512701
1164,0.426373,0.626133,-0.328258
1165,0.568511,0.694122,-0.082713
1166,0.581176,0.589338,0.218988
1167,0.51304,0.608443,0.105659
1168,0.363311,0.410629,-0.222455
1169,0.046549,-0.082167,-0.05727
1170,0.022941,0.011312,-0.484737
1171,0.066889,-0.045675,-0.52015
1172,0.146715,-0.161193,-0.607013
1173,0.317038,-0.588378,-0.63844
1174,0.425545,-0.965715,-0.589213
1175,0.372857,-1.064508,-0.423973
1176,0.328925,-0.963116,-0.316072
1177,0.212721,-0.883472,-0.283986
1178,0.064843,-0.725896,-0.044762
1179,-0.001715,-0.563705,0.239351
1180,0.189259,-0.358918,0.912109
1181,0.586081,2.177881,1.369144
1182,0.449223,2.782941,1.222717
1183,0.172029,0.320534,0.507456
1184,-0.052213,-1.311488,0.469942
1185,0.282976,-0.791881,0.382181
1186,0.424588,0.058752,0.313814
1187,-0.074084,0.866955,-2.00007
1188,0.889397,1.402205,0.321672
1189,1.101318,-0.788382,-0.074261
1190,0.612549,-1.234103,0.209848
1191,0.094287,-0.110316,-0.956643
1192,-0.004188,0.81637,-0.76628
1193,-0.176234,0.865958,-0.126611
1194,-0.128113,0.395221,-0.057601
1195,0.044008,-0.070866,0.012693
1196,0.198808,-0.290679,0.211463
1197,0.251666,-0.480009,0.276915
1198,0.390484,-0.296424,0.345356
1199,0.320381,0.016832,0.355739
1200,0.062685,-0.126355,0.350474
1201,-0.062975,-0.278942,0.180404
1202,-0.119142,-0.24626,0.246801
1203,-0.163413,-0.039918,0.311697
1204,-0.411127,-0.043302,0.32725
1205,-0.521156,-0.033818,0.498573
1206,-0.24925,0.330001,0.839317
1207,-0.2296,0.317614,0.414385
1208,-0.537824,0.658168,0.550032
1209,-0.666641,0.554952,0.772902
1210,-0.650288,0.772231,0.428297
1211,-0.596348,0.62065,-0.038779
1212,-0.059577,0.738708,0.691053
1213,0.677109,0.610541,-0.071155
1214,0.518725,0.751335,-0.309186
1215,0.483438,0.729764,-0.107485
1216,0.430573,0.734206,0.480441
1217,0.483439,0.414579,-0.322362
1218,0.378307,0.255425,-0.095364
1219,0.078452,-0.055691,-0.155464
1220,0.080061,-0.081678,-0.494439
1221,0.107194,-0.374793,-0.490915
1222,0.171265,-0.503532,-0.548946
1223,0.238821,-0.785029,-0.592585
1224,0.311005,-0.951374,-0.547705
1225,0.372579,-0.925119,-0.448042
1226,0.434827,-0.91741,-0.376622
1227,0.312615,-0.906059,-0.288241
1228,0.235582,-0.856157,-0.229506
1229,-0.012847,-0.457154,0.315272
1230,0.027334,-0.26095,0.857675
1231,0.673944,1.261983,1.503079
1232,0.963429,2.444353,1.369089
1233,0.431426,0.071008,0.487816
1234,-0.018693,-1.154169,0.215379
1235,0.213783,-0.536756,0.539451
1236,0.242286,0.400283,0.231615
1237,-0.146649,1.200059,-1.909367
1238,0.774007,0.965901,-0.187628
1239,1.096539,-0.882901,0.074721
1240,0.885101,-1.34274,0.637567
1241,0.076678,-0.082917,-0.955098
1242,-0.012388,0.899952,-1.093565
1243,-0.284599,0.734475,-0.04136
1244,-0.216963,0.307399,0.036366
1245,0.074863,-0.182808,0.137013
1246,0.25654,-0.319119,0.250303
1247,0.314565,-0.383616,0.249652
1248,0.274325,-0.146547,0.267386
1249,0.074341,-0.007667,0.294967
1250,-0.036943,-0.087357,0.296307
1251,-0.021999,-0.247295,0.124295
1252,-0.097113,-0.103556,0.433237
1253,-0.172601,0.056635,0.418757
1254,-0.367865,0.000381,0.320574
1255,-0.605131,-0.035587,0.516668
1256,-0.610169,0.276701,0.850853
1257,-0.414207,0.443851,0.489049
1258,-0.303884,0.586399,0.422865
1259,-0.355158,0.527666,0.577514
1260,-0.442657,0.620106,0.802213
1261,-0.431437,0.676726,0.059501
1262,-0.183755,0.758248,0.181945
1263,0.340164,0.623947,0.010382
1264,0.582344,0.642787,-0.399657
1265,0.583158,0.705436,0.321402
1266,0.429693,0.781553,0.608268
1267,0.466616,0.530112,-0.230938
1268,0.419693,0.222826,-0.107409
1269,0.205215,-0.026394,-0.085428
1270,0.088768,-0.028114,-0.393277
1271,0.093145,-0.349645,-0.449408
1272,0.131304,-0.497352,-0.494031
1273,0.159211,-0.797843,-0.530258
1274,0.291859,-0.924857,-0.506202
1275,0.368277,-0.801005,-0.382452
1276,0.366758,-0.775805,-0.326233
1277,0.313827,-0.781446,-0.283803
1278,0.29327,-0.754679,-0.21983
1279,0.148441,-0.581495,0.037317
1280,-0.065503,-0.328386,0.641911
1281,-0.001085,0.29694,1.13619
1282,0.649754,2.051917,1.611657
1283,0.563057,0.644181,0.635805
1284,0.23117,-0.578395,0.244713
1285,0.365422,-0.144686,0.560572
1286,0.563716,0.527005,0.781241
1287,0.068847,1.963395,-1.721336
1288,0.608189,-0.319959,-0.140795
1289,0.888969,-1.268354,-0.330255
1290,0.864768,-1.40341,0.82348
1291,-0.168937,0.370463,-1.095428
1292,-0.103539,0.756837,-1.452585
1293,-0.286032,0.945605,-0.115564
1294,-0.203761,0.115383,0.208274
1295,0.126838,-0.346333,0.08444
1296,0.204169,-0.339735,0.091595
1297,0.238245,-0.319284,0.23372
1298,0.209183,-0.181594,0.363418
1299,0.167376,0.044358,0.31222
1300,0.030915,-0.119201,0.339054
1301,-0.004722,-0.315196,0.18458
1302,-0.047045,-0.202365,0.10466
1303,-0.123909,-0.066408,0.248829
1304,-0.141401,0.00978,0.384308
1305,-0.340769,0.084426,0.369814
1306,-0.451406,0.053283,0.598836
1307,-0.374432,0.303151,0.687152
1308,-0.29005,0.33124,0.541971
1309,-0.389253,0.583784,0.496967
1310,-0.554001,0.544059,0.65328
1311,-0.553126,0.772949,0.579475
1312,-0.605348,0.626236,0.104657
1313,-0.072529,0.648682,0.636703
1314,0.210552,0.608193,0.169402
1315,0.502112,0.629822,-0.21432
1316,0.528912,0.574504,0.44978
1317,0.549077,0.568002,0.383247
1318,0.403565,0.582055,-0.186752
1319,0.267428,0.251849,0.085062
1320,0.155815,0.094874,-0.020005
1321,0.089752,0.083843,-0.456206
1322,0.110478,-0.189877,-0.522537
1323,0.136609,-0.455421,-0.564169
1324,0.234171,-0.711796,-0.563592
1325,0.304659,-0.929121,-0.501509
1326,0.370231,-0.92032,-0.37768
1327,0.416132,-0.847509,-0.353725
1328,0.351465,-0.864141,-0.319421
1329,0.239256,-0.833099,-0.240636
1330,0.057784,-0.348147,0.382541
1331,0.065307,-0.319225,0.681309
1332,0.463886,0.385516,1.211632
1333,0.154972,2.135984,1.086517
1334,0.131738,1.053288,0.617259
1335,-0.006536,-0.719714,0.527969
1336,0.021772,-1.14251,0.557404
1337,0.290252,0.034841,0.499426
1338,0.145592,0.731317,-0.577793
1339,0.977675,1.339477,0.040031
1340,1.154787,-0.753345,0.124021
1341,0.939423,-1.353259,0.206533
1342,0.065105,-0.159403,-0.7684
1343,-0.052419,0.725235,-1.164711
1344,-0.310167,0.927867,-0.151069
1345,-0.239749,0.240429,0.086198
1346,0.077818,-0.201294,0.115227
1347,0.277975,-0.309652,0.183013
1348,0.33351,-0.336951,0.24956
1349,0.240683,-0.286847,0.345217
1350,0.118102,-0.05059,0.321026
1351,-0.065897,-0.061495,0.281659
1352,-0.101109,-0.234993,0.14278
1353,-0.102968,-0.155527,0.123792
1354,-0.169227,-0.015941,0.379806
1355,-0.168454,0.067453,0.406176
1356,-0.200462,0.063059,0.337003
1357,-0.285398,0.165027,0.670154
1358,-0.283564,0.433665,0.701516
1359,-0.331956,0.492175,0.272275
1360,-0.549822,0.661033,0.441396
1361,-0.282472,0.689106,0.740818
1362,-0.196403,0.830679,0.570076
1363,-0.277184,0.658044,0.534598
1364,-0.28198,0.393318,0.42423
1365,0.225362,0.320428,0.615341
1366,0.418382,0.309957,-0.042625
1367,0.418325,0.468022,-0.233024
1368,0.328725,0.57492,0.636336
1369,0.306825,0.698477,0.388404
1370,0.28567,0.501037,-0.077128
1371,0.190788,-0.097973,-0.149825
1372,0.151493,-0.051531,-0.421776
1373,0.153393,-0.123075,-0.446007
1374,0.164166,-0.421836,-0.431942
1375,0.351368,-0.794772,-0.567726
1376,0.402495,-0.892872,-0.53588
1377,0.441322,-0.891915,-0.417769
1378,0.451567,-0.746531,-0.264682
1379,0.422382,-0.781884,-0.246297
1380,0.296946,-0.763377,-0.191478
1381,0.097798,-0.408199,0.318292
1382,0.113417,-0.226238,0.926053
1383,0.222625,0.250255,1.261361
1384,0.34991,2.139716,1.216823
1385,0.096369,0.191981,0.469975
1386,-0.07097,-0.543765,0.388006
1387,0.388267,-0.515113,0.501026
1388,0.316667,0.15105,0.214124
1389,0.301186,0.709034,-1.271241
1390,0.704046,1.372524,-0.652815
1391,0.963431,-0.298715,0.443012
1392,1.203985,-1.488608,-0.109141
1393,0.263623,-0.78382,0.323622
1394,-0.281943,0.449655,-1.413026
1395,-0.231997,0.986707,-0.722348
1396,-0.382057,0.604186,0.289019
1397,0.005303,-0.202204,0.211189
1398,0.241921,-0.402656,0.197746
1399,0.390963,-0.267783,0.208307
1400,0.271001,-0.199461,0.286379
1401,0.229179,-0.117034,0.379691
1402,0.013311,-0.026245,0.36664
1403,-0.00171,-0.255771,0.205474
1404,0.015637,-0.227057,0.156583
1405,-0.088335,0.001374,0.265879
1406,-0.207343,0.155236,0.392202
1407,-0.228508,0.167357,0.416899
1408,-0.399343,0.316787,0.778584
1409,-0.309951,0.358561,0.547531
1410,-0.489151,0.57154,0.412626
1411,-0.57385,0.562143,0.676954
1412,-0.456808,0.75778,0.670448
1413,-0.468954,0.56293,0.461066
1414,-0.447394,0.502278,0.108127
1415,0.340596,0.585826,0.445541
1416,0.753743,0.54288,-0.145492
1417,0.675361,0.580182,0.042463
1418,0.301295,0.653961,0.545512
1419,0.339696,0.589557,0.003333
1420,0.384462,0.536321,-0.409286
1421,0.0824,0.010893,-0.087491
1422,0.099416,0.00872,-0.360064
1423,0.165552,-0.067105,-0.471895
1424,0.181113,-0.565493,-0.412535
1425,0.232642,-0.673051,-0.462611
1426,0.239973,-0.767063,-0.521282
1427,0.382302,-0.869598,-0.350578
1428,0.388038,-0.875301,-0.304996
1429,0.379294,-0.902361,-0.278009
1430,0.171693,-0.792407,-0.175391
1431,0.09336,-0.681473,-0.010943
1432,0.007602,-0.338798,0.520173
1433,0.378937,0.145891,1.348606
1434,0.411767,1.983606,1.292537
1435,0.101604,0.35718,0.531963
1436,-0.039596,-0.849203,0.481911
1437,0.012374,-0.923779,0.513059
1438,0.29754,0.309433,0.575849
1439,0.186243,0.665942,0.160475
1440,0.082985,1.340855,-1.555577
1441,1.24621,-0.74657,-0.027533
1442,1.539108,-1.635657,0.241435
1443,0.951117,-1.317646,0.726969
1444,-0.193891,0.559255,-1.787343
1445,-0.222722,0.938829,-0.66053
1446,-0.376415,0.816419,0.013627
1447,0.197824,-0.253753,0.187211
1448,0.369357,-0.409726,0.110529
1449,0.407052,-0.220007,0.149843
1450,0.153984,-0.169357,0.256392
1451,0.026081,0.021874,0.214584
1452,-0.044955,-0.035492,0.319603
1453,0.030082,-0.268984,0.194729
1454,0.073526,-0.261344,0.390915
1455,-0.20804,0.093746,0.328878
1456,-0.311059,0.116357,0.267582
1457,-0.327821,0.117078,0.26946
1458,-0.210151,0.069261,0.673273
1459,-0.20101,0.264784,0.968066
1460,-0.389317,0.404444,0.393343
1461,-0.638023,0.61979,0.191089
1462,-0.631577,0.632139,0.431144
1463,-0.054979,0.726185,0.568328
1464,-0.181645,0.560271,0.4274
1465,-0.393838,0.383255,0.249099
1466,0.350344,0.541285,0.233713
1467,0.591529,0.598668,-0.174874
1468,0.65242,0.659401,-0.368788
1469,0.531695,0.673989,0.551424
1470,0.489065,0.662093,0.076356
1471,0.440486,0.608192,-0.366253
1472,0.045784,-0.045588,-0.097
1473,0.094818,0.000405,-0.428127
1474,0.132946,-0.172592,-0.394028
1475,0.141824,-0.273366,-0.548772
1476,0.221553,-0.633274,-0.473322
1477,0.327088,-0.931252,-0.482442
1478,0.410191,-0.939398,-0.388047
1479,0.43275,-0.818679,-0.301807
1480,0.398134,-0.807557,-0.322928
1481,0.290242,-0.726783,-0.284441
1482,0.209868,-0.611544,-0.071084
1483,0.15259,-0.329615,0.440426
1484,0.4087,-0.044313,1.263076
1485,0.478505,1.364964,1.354217
1486,-0.118121,0.730678,0.707322
1487,-0.127837,-0.035566,0.511177
1488,-0.143126,-0.762974,0.419491
1489,0.161806,-0.307874,0.449843
1490,0.219096,0.270045,-0.40482
1491,0.63663,1.320912,-1.807527
1492,0.851838,0.858297,0.573229
1493,1.317999,-1.477134,0.055924
1494,0.967989,-1.41789,0.468863
1495,-0.2008,0.267394,-0.841583
1496,-0.219668,0.792935,-1.218145
1497,-0.52552,0.76743,0.153362
1498,-0.011264,-0.106713,0.383034
1499,0.257384,-0.396869,0.221013
1500,0.36656,-0.312183,0.290229
1501,0.252113,-0.38099,0.276338
1502,0.181772,-0.090184,0.290064
1503,0.003724,-0.053168,0.342311
1504,0.052186,-0.17127,0.207886
1505,0.114225,-0.236177,0.157735
1506,0.021755,-0.031221,0.353043
1507,-0.127555,0.104202,0.390304
1508,-0.225873,0.115946,0.24953
1509,-0.352014,0.150957,0.685134
1510,-0.378403,0.535672,0.842771
1511,-0.246436,0.544984,0.364043
1512,-0.327185,0.575966,0.465558
1513,-0.432823,0.526346,0.81699
1514,-0.31219,0.621398,0.529356
1515,-0.328498,0.460828,0.291332
1516,-0.164591,0.514557,0.509497
1517,0.403085,0.649977,-0.246143
1518,0.534869,0.622305,-0.298052
1519,0.659103,0.588521,0.365133
1520,0.545841,0.761217,0.198905
1521,0.559516,0.713466,-0.268919
1522,0.399746,0.433481,0.172036
1523,0.262441,-0.028743,-0.024041
1524,0.133514,-0.076246,-0.47049
1525,0.092667,-0.367923,-0.358392
1526,0.103547,-0.538578,-0.483679
1527,0.144055,-0.904872,-0.491584
1528,0.304802,-0.931856,-0.50224
1529,0.392537,-0.916971,-0.37005
1530,0.46637,-0.87216,-0.324564
1531,0.330807,-0.861739,-0.239377
1532,0.166741,-0.758035,-0.060477
1533,0.02692,-0.545768,0.219001
1534,-0.05335,0.029275,1.161656
1535,0.240198,0.770152,1.480263
1536,0.684402,2.134488,1.495977
1537,0.197845,-0.644768,0.306925
1538,0.082537,-0.97592,0.120993
1539,0.431215,-0.38687,0.401657
1540,0.413922,0.820195,0.431987
1541,0.049231,0.997986,-1.49667
1542,0.702696,0.545661,-0.031508
1543,0.977464,-1.192877,-0.121248
1544,0.503206,-1.028507,0.231493
1545,-0.048605,0.175096,-0.991963
1546,-0.137421,0.938724,-0.596348
1547,-0.296373,0.622553,-0.063494
1548,-0.118129,0.12235,0.093085
1549,0.169657,-0.149097,0.160363
1550,0.320854,-0.202713,0.250867
1551,0.290282,-0.233193,0.416957
1552,0.214247,-0.300507,0.29607
1553,0.137677,-0.14298,0.266381
1554,0.046584,-0.1758,0.351825
1555,-0.028615,-0.232335,0.17528
1556,-0.010212,-0.15962,0.356206
1557,-0.090178,0.006707,0.527665
1558,-0.15005,0.102851,0.451599
1559,-0.579415,0.102716,0.607317
1560,-0.608548,0.2903,0.77504
1561,-0.549612,0.336179,0.740731
1562,-0.319903,0.596305,0.461571
1563,-0.305495,0.572004,0.666254
1564,-0.27642,0.485502,0.787784
1565,-0.364982,0.46459,0.440758
1566,-0.408852,0.461748,0.245103
1567,-0.330317,0.538959,0.376788
1568,0.548056,0.642898,-0.262979
1569,0.590548,0.655903,-0.122184
1570,0.598687,0.597121,0.180618
1571,0.314567,0.667173,-0.255161
1572,0.177055,0.442151,0.339944
1573,0.112587,0.116029,0.003617
1574,0.117298,0.091461,-0.269259
1575,0.116356,-0.141862,-0.386447
1576,0.189622,-0.545526,-0.461318
1577,0.245028,-0.749263,-0.360344
1578,0.37053,-0.846683,-0.532778
1579,0.422221,-0.891608,-0.280455
1580,0.433045,-0.850253,-0.273637
1581,0.410054,-0.85773,-0.295054
1582,0.296685,-0.765168,-0.225325
1583,0.181209,-0.595068,0.078983
1584,0.07485,-0.424232,0.378943
1585,0.293522,0.153089,1.21254
1586,0.368133,2.161106,1.541144
1587,0.182937,1.127355,0.879771
1588,-0.028249,-0.64027,0.49881
1589,-0.059998,-1.120926,0.416545
1590,0.303028,0.031076,0.57531
1591,0.306413,0.490288,-0.435323
1592,0.621662,1.129572,-1.285643
1593,0.894614,0.560375,0.563992
1594,0.829612,-1.141642,-0.258497
1595,0.488243,-0.826173,0.032278
1596,0.167871,-0.27733,-0.436067
1597,-0.146483,1.026302,-0.354927
1598,-0.208278,0.525673,0.148201
1599,-0.10668,0.198823,0.182754
1600,0.197458,-0.277392,0.125359
1601,0.311135,-0.359268,0.28847
1602,0.291389,-0.403646,0.347771
1603,0.185283,-0.214366,0.316367
1604,0.06507,-0.094301,0.374734
1605,-0.015183,-0.178835,0.376173
1606,-0.025979,-0.161365,0.183046
1607,-0.043332,-0.126886,0.466826
1608,-0.073349,0.050316,0.452777
1609,-0.196136,0.206973,0.275731
1610,-0.471545,0.048033,0.615191
1611,-0.447671,0.189743,0.786188
1612,-0.35888,0.351587,0.77073
1613,-0.363434,0.531401,0.372442
1614,-0.349396,0.534587,0.596594
1615,-0.220982,0.477829,0.748383
1616,-0.314469,0.533049,0.471978
1617,-0.385953,0.588586,0.360983
1618,0.113341,0.715303,0.621349
1619,0.586275,0.648949,-0.161952
1620,0.586662,0.471413,-0.025811
1621,0.335115,0.572078,0.498171
1622,0.20753,0.797175,-0.102137
1623,0.094105,0.573671,0.20211
1624,0.168338,0.056872,0.166426
1625,0.200545,0.009247,-0.294987
1626,0.186401,-0.194669,-0.411192
1627,0.188801,-0.547794,-0.291988
1628,0.23698,-0.613707,-0.283008
1629,0.299964,-0.686321,-0.414325
