,userAcceleration.x,userAcceleration.y,userAcceleration.z
0,-0.021608,-0.561071,0.455003
1,-0.059048,-0.59406,0.524288
2,-0.08625,-0.717868,0.540904
3,-0.016846,-0.697559,0.499493
4,0.034537,-0.562983,0.322715
5,0.009941,-0.550268,0.059339
6,-0.004317,-0.591451,-0.219984
7,-0.061171,-0.369202,-0.516388
8,-0.007674,0.07803,-0.692126
9,0.184546,2.088064,-0.478779
10,-0.593268,0.220063,-1.028505
11,0.381387,-1.429716,-0.946533
12,0.421408,-1.297191,-0.642849
13,0.077489,-0.164108,0.388946
14,-0.421207,1.327125,0.799527
15,-0.905934,1.882444,0.76158
16,-0.05187,-1.280215,0.908723
17,-0.396967,-1.041339,0.379612
18,0.080307,-0.250505,0.172485
19,0.399919,1.06635,0.697522
20,-0.125314,0.296403,0.275516
21,-0.203203,-0.06759,0.187773
22,-0.180357,-0.281506,0.124329
23,-0.115888,-0.072031,0.18192
24,-0.05135,0.119685,0.23781
25,0.017556,-0.21813,0.137228
26,-0.002511,-0.225078,0.068497
27,0.079326,-0.076369,0.042168
28,0.153215,-0.053678,-0.091754
29,0.144343,-0.128776,-0.203085
30,0.151349,-0.15987,-0.214456
31,0.202933,-0.094978,-0.18484
32,0.128836,-0.12907,-0.173894
33,-0.029591,-0.035013,-0.230275
34,0.020721,0.081606,-0.347366
35,0.168462,0.181719,-0.431859
36,0.347612,0.266505,-0.267514
37,0.360437,0.364532,-0.080354
38,-0.022214,0.341745,-0.317571
39,-0.165244,0.145941,-0.398294
40,-0.017623,0.240066,-0.156907
41,0.133018,0.215303,-0.032375
42,0.025356,0.446507,-0.074903
43,-0.418205,0.462717,-0.039669
44,-0.435155,0.364711,0.230637
45,-0.348858,0.50989,0.371092
46,-0.276873,0.490302,0.235946
47,-0.330227,0.520786,0.17541
48,-0.314364,0.375291,0.304521
49,-0.142915,0.238606,0.451831
50,-0.135474,0.058991,0.46474
51,-0.129734,-0.065725,0.431228
52,-0.081084,-0.330618,0.387922
53,-0.025285,-0.32726,0.437394
54,-0.008414,-0.453152,0.521625
55,0.032184,-0.56397,0.563279
56,0.040823,-0.581711,0.535735
57,0.058582,-0.571194,0.408781
58,0.064652,-0.501874,0.228546
59,0.082429,-0.461791,0.110191
60,0.08325,-0.480149,-0.013111
61,-0.055781,-0.049925,-0.601312
62,-0.0539,0.404946,-0.740987
63,-0.412078,1.784714,-0.377836
64,-0.531766,0.695659,-0.581588
65,-0.243601,-0.188586,-0.755974
66,0.312415,-0.83895,-0.578448
67,0.3109,-0.32294,-0.093811
68,0.066534,0.764869,0.292223
69,-0.505294,1.875623,0.82874
70,-0.307292,-1.598407,0.878715
71,-0.313976,-1.598615,0.881252
72,-0.00151,-0.214973,0.195549
73,0.792674,1.278334,0.773019
74,0.162444,0.795653,0.633599
75,-0.159313,-0.153298,0.11057
76,-0.158681,-0.368319,0.029121
77,-0.114076,-0.012741,0.152265
78,-0.14692,0.132277,0.240594
79,-0.170487,-0.044805,0.21589
80,-0.01581,-0.244287,0.067444
81,0.022827,-0.214062,-0.104651
82,0.207146,-0.079128,-0.125887
83,0.221995,-0.090677,-0.088443
84,0.170086,-0.127841,-0.089176
85,0.160915,-0.245237,-0.095884
86,0.04054,-0.097386,-0.113043
87,0.010866,0.019712,-0.253707
88,0.063602,-0.046745,-0.361194
89,0.100216,-0.004787,-0.378479
90,0.318783,0.151647,-0.31951
91,0.578428,0.390671,-0.140522
92,0.202148,0.442272,-0.204515
93,-0.22004,0.235163,-0.481936
94,-0.072402,-0.026578,-0.312346
95,0.073744,0.035724,-0.279018
96,0.165998,0.185019,0.045597
97,-0.207621,0.909621,0.067958
98,-0.478193,0.86265,0.291663
99,-0.600328,0.3373,0.188175
100,-0.236564,0.564245,0.242278
101,-0.30634,0.702262,0.066653
102,-0.290145,0.695791,0.024262
103,-0.164528,0.2861,0.347247
104,-0.162384,0.259726,0.457262
105,-0.118684,0.19477,0.498182
106,-0.030369,-0.171322,0.396326
107,-0.017662,-0.377059,0.390657
108,-0.042057,-0.455832,0.407303
109,-0.020626,-0.684512,0.552016
110,-0.011836,-0.677009,0.559114
111,0.056611,-0.679046,0.498864
112,0.112487,-0.561374,0.361809
113,0.120941,-0.53601,0.289984
114,0.124274,-0.588306,0.161081
115,0.009572,-0.468038,-0.353822
116,-0.050344,-0.309509,-0.541578
117,0.086057,1.186692,-0.771489
118,-0.718062,0.987609,-0.784808
119,-0.036818,-0.974678,-1.168267
120,0.291976,-1.310241,-0.810651
121,0.357611,-0.190934,0.091446
122,-0.258956,1.412428,0.947571
123,-1.499842,1.583132,0.301731
124,0.139444,-1.219824,0.68137
125,-0.055294,-0.816631,0.179195
126,0.488384,0.832397,0.58586
127,0.198184,1.050925,0.55078
128,-0.132271,0.279074,0.380997
129,-0.144511,-0.213726,0.190004
130,-0.091173,-0.181964,0.223514
131,-0.076517,-0.075654,0.270277
132,-0.114224,-0.032354,0.237691
133,-0.015854,-0.206333,0.192637
134,0.076212,-0.246233,0.087812
135,0.154663,-0.16238,-0.014163
136,0.236276,-0.109382,-0.134875
137,0.251324,-0.191585,-0.155438
138,0.235427,-0.251941,-0.091119
139,0.210645,-0.190956,-0.074208
140,0.015528,-0.028438,-0.190535
141,0.036092,-0.024973,-0.288679
142,0.027544,0.112704,-0.311065
143,0.05292,0.267842,-0.456199
144,0.343137,0.338669,-0.392381
145,0.46832,0.475813,-0.040929
146,-0.149484,0.408423,-0.342853
147,-0.183999,0.36715,-0.369977
148,0.182657,0.261741,-0.030335
149,0.142247,0.272114,-0.018493
150,-0.348255,0.452519,-0.16084
151,-0.409425,0.146372,0.090642
152,-0.368597,0.345806,0.173433
153,-0.182606,0.433325,0.382862
154,-0.380268,0.492948,0.192333
155,-0.358894,0.469631,0.232498
156,0.00945,0.288326,0.44045
157,-0.007864,0.223389,0.450845
158,-0.05692,0.167794,0.493222
159,-0.159766,-0.222045,0.42993
160,-0.125997,-0.208377,0.49897
161,-0.085827,-0.249132,0.529018
162,0.045408,-0.499829,0.483924
163,0.08284,-0.568325,0.444343
164,0.110629,-0.569893,0.438863
165,0.115723,-0.489587,0.417145
166,0.110219,-0.535121,0.328119
167,0.107738,-0.544245,0.236095
168,0.065005,-0.533787,-0.054587
169,-0.101937,-0.26896,-0.475512
170,-0.078118,0.61293,-0.779808
171,-0.333088,1.819889,-0.524727
172,-0.592208,0.254636,-0.752596
173,0.180603,-0.994761,-0.817418
174,0.473564,-0.777112,-0.412081
175,0.391885,-0.329872,0.076451
176,-0.661467,1.410646,1.176725
177,-1.516865,2.136085,1.017562
178,-0.706092,0.346987,-0.135809
179,0.570918,-1.518927,0.702378
180,0.288256,-0.604032,0.236977
181,0.714971,1.146794,0.706656
182,0.054789,1.237298,0.658486
183,-0.254571,-0.142184,0.400851
184,-0.278283,-0.439579,0.248656
185,-0.292813,-0.404176,0.091604
186,-0.309115,0.090438,0.173177
187,0.040384,-0.064961,0.208875
188,0.168444,-0.180406,0.130437
189,0.17107,-0.140392,0.006365
190,0.219091,-0.101199,-0.093459
191,0.270671,-0.047526,-0.171447
192,0.184902,-0.126975,-0.14922
193,0.000975,-0.206889,-0.016742
194,-0.072176,-0.159549,-0.054772
195,-0.025674,0.020255,-0.28112
196,0.065373,0.106934,-0.541132
197,0.14152,0.095346,-0.530313
198,0.476144,0.238767,-0.239942
199,0.202004,0.425571,-0.18913
200,-0.080767,0.399103,-0.337283
201,-0.090685,0.115472,-0.196051
202,0.12392,0.172809,-0.041592
203,0.162778,0.283893,0.03858
204,-0.396036,0.674236,0.192028
205,-0.614337,0.267941,0.241181
206,-0.494188,0.520648,0.271092
207,-0.290117,0.461775,0.285724
208,-0.341503,0.616489,0.060424
209,-0.274662,0.377026,0.415907
210,-0.105989,0.202656,0.622554
211,-0.052657,0.126341,0.474416
212,-0.048355,0.006812,0.517892
213,-0.062899,-0.376031,0.337738
214,-0.012159,-0.381455,0.469797
215,-0.013915,-0.396863,0.528794
216,0.073143,-0.507724,0.608479
217,0.158667,-0.635373,0.514988
218,0.151309,-0.589169,0.40209
219,0.135659,-0.484211,0.31725
220,0.155914,-0.5097,0.238742
221,0.122962,-0.55077,-0.029808
222,0.037211,-0.486638,-0.458219
223,-0.077007,0.178142,-0.773819
224,-0.247455,1.928575,-0.512188
225,-0.802565,0.991577,-0.652689
226,-0.110045,-0.830178,-0.876767
227,0.447571,-0.603228,-0.181692
228,0.38885,-0.222141,0.031406
229,0.210951,0.589662,0.330554
230,-1.020099,1.44909,0.411694
231,0.049995,-1.456627,1.146842
232,-0.425787,-0.911598,0.181388
233,0.345716,0.712267,0.401242
234,0.305938,1.158511,0.777868
235,-0.046939,0.31432,0.45659
236,-0.130405,-0.295363,0.204901
237,-0.071011,-0.26836,0.130646
238,-0.041574,0.082597,0.164715
239,0.001083,0.005965,0.135319
240,0.104821,-0.163234,0.131392
241,0.026578,-0.221414,-0.105236
242,0.112766,-0.163114,-0.154948
243,0.265581,-0.057052,-0.227797
244,0.176967,-0.069002,-0.14778
245,0.116355,-0.234035,-0.074765
246,0.049014,-0.216258,-0.038207
247,0.028695,0.046221,-0.319406
248,0.116776,0.035014,-0.391707
249,0.132071,0.061022,-0.368022
250,0.388777,0.216857,-0.241714
251,0.471922,0.340309,-0.135189
252,-0.11205,0.385761,-0.316128
253,-0.274896,0.084392,-0.41783
254,-0.066903,0.071487,-0.160244
255,0.100924,0.17608,0.019365
256,-0.29574,0.704646,0.033392
257,-0.524447,0.647704,0.171846
258,-0.521193,0.451194,0.287025
259,-0.21345,0.499694,0.372763
260,-0.299973,0.711408,0.18317
261,-0.341056,0.570234,0.134856
262,-0.250811,0.277502,0.405961
263,-0.12355,0.165824,0.575815
264,-0.004663,-0.036039,0.528535
265,-0.005174,-0.242783,0.4811
266,-0.007216,-0.394721,0.561358
267,0.026243,-0.473613,0.485489
268,0.000848,-0.584501,0.57207
269,0.071613,-0.609566,0.574303
270,0.147823,-0.619198,0.461086
271,0.100426,-0.594553,0.301737
272,0.104048,-0.433722,0.217899
273,0.126993,-0.534837,0.063323
274,0.133839,-0.493377,-0.244235
275,0.023673,-0.14587,-0.684449
276,-0.093814,1.314418,-0.861245
277,-0.90514,1.537785,-0.569872
278,-0.341317,-0.234854,-1.013408
279,0.679524,-1.227076,-0.667279
280,0.56799,-0.627676,0.100725
281,0.043283,0.533262,0.808352
282,-1.48043,2.015421,0.783224
283,-0.445728,-0.174339,0.463643
284,-0.113082,-0.80577,0.096148
285,0.509032,0.83334,0.49064
286,0.195385,1.104032,0.709846
287,-0.058931,0.300543,0.513249
288,-0.122788,-0.265003,0.252935
289,-0.135885,-0.41838,0.240594
290,-0.239647,0.01361,0.234871
291,-0.141328,-0.082444,0.16809
292,-0.009761,-0.177085,0.156001
293,0.050018,-0.209778,0.1488
294,0.206576,-0.068912,-0.120139
295,0.324762,-0.07059,-0.205657
296,0.318216,-0.085389,-0.194522
297,0.1747,-0.19573,-0.057809
298,-0.087384,-0.07862,-0.141298
299,-0.026155,0.086376,-0.305705
300,0.050448,0.088199,-0.329355
301,0.202066,0.131683,-0.366688
302,0.334194,0.203648,-0.342702
303,0.49912,0.456774,-0.184883
304,-0.050551,0.430126,-0.272719
305,-0.21775,0.435337,-0.183819
306,-0.029314,0.439462,0.068845
307,-0.475329,0.321246,-0.122441
308,-0.656949,0.259667,-0.121941
309,-0.611077,0.013965,-0.005715
310,-0.146926,0.608135,0.33034
311,-0.335762,0.47264,0.258784
312,-0.521643,0.471759,0.181486
313,-0.338446,0.275482,0.355507
314,-0.107978,0.221073,0.47512
315,-0.031287,0.15591,0.437935
316,-0.073902,-0.086912,0.373248
317,-0.078682,-0.266419,0.378908
318,-0.029485,-0.384042,0.52341
319,0.046259,-0.317367,0.449309
320,0.104445,-0.534861,0.50613
321,0.123812,-0.59494,0.493357
322,0.22409,-0.603316,0.469482
323,0.181556,-0.549788,0.35332
324,0.163902,-0.450436,0.2352
325,0.167048,-0.519943,0.106727
326,0.068459,-0.441425,-0.238366
327,-0.108984,0.053833,-0.676591
328,-0.356004,1.790035,-0.699958
329,-1.050633,1.206513,-0.711267
330,-0.282714,-0.628258,-0.854502
331,0.448269,-1.089839,-0.34616
332,-0.055025,0.571694,0.00064
333,-0.29722,1.448514,0.298078
334,-0.556616,1.760019,0.91701
335,0.149698,-1.288603,1.312537
336,-0.38897,-0.379261,0.150918
337,0.062625,0.34533,0.183475
338,0.292662,0.872705,0.649807
339,-0.047068,-0.074055,0.252314
340,-0.050838,-0.090113,0.092689
341,-0.030296,-0.033262,0.122911
342,-0.023318,-0.01693,0.207787
343,-0.10344,-0.095709,0.184368
344,-0.072419,-0.130069,0.171746
345,0.044148,-0.197217,0.175031
346,0.193386,-0.106054,-0.026178
347,0.237655,-0.075762,-0.152483
348,0.253052,-0.114501,-0.180295
349,0.178828,-0.095716,-0.091775
350,0.104272,-0.16707,-0.01544
351,-0.065637,-0.131788,-0.113335
352,-0.034282,0.008704,-0.307547
353,0.022852,0.12598,-0.395817
354,0.063375,0.176579,-0.430887
355,0.336107,0.346693,-0.183065
356,0.166937,0.407328,-0.030531
357,-0.325961,0.29372,-0.404175
358,-0.144274,0.119327,-0.368399
359,0.223023,0.1356,-0.142613
360,0.287101,0.105043,-0.045253
361,-0.317864,0.637077,0.151256
362,-0.402798,0.262824,0.265606
363,-0.458354,0.455426,0.270837
364,-0.342042,0.397889,0.25359
365,-0.43813,0.544316,0.137758
366,-0.436854,0.515449,0.223934
367,-0.102354,0.298077,0.508685
368,0.039543,0.139604,0.407935
369,0.020619,-0.132084,0.451933
370,0.022559,-0.291932,0.499375
371,0.007875,-0.305558,0.501359
372,-0.0016,-0.368804,0.555183
373,-0.046763,-0.388625,0.523879
374,0.142702,-0.469728,0.543241
375,0.186969,-0.524254,0.429764
376,0.183279,-0.563662,0.35788
377,0.130635,-0.418942,0.18381
378,0.12524,-0.455763,0.033666
379,-0.013868,-0.096627,-0.49911
380,-0.267588,0.78175,-0.887258
381,-0.541062,1.487363,-0.711539
382,-0.598844,0.0365,-0.557812
383,-0.107135,-0.508844,-0.705904
384,0.526377,-0.909028,-0.417276
385,0.107737,0.123193,0.025346
386,-0.506444,1.803558,0.629163
387,-0.767898,2.024286,0.898665
388,0.245667,-1.674741,1.328999
389,-0.16079,-1.017198,0.670562
390,0.167567,0.332869,0.00086
391,0.342494,0.960464,0.69612
392,0.155969,0.553532,0.447366
393,0.022568,-0.092322,0.217466
394,-0.093956,-0.252602,0.17058
395,-0.116573,-0.008114,0.268967
396,-0.191042,0.120921,0.21776
397,-0.055376,-0.091816,0.260845
398,0.115724,-0.183046,0.245514
399,0.146245,-0.178473,0.150363
400,0.198337,-0.087072,-0.071743
401,0.208032,-0.103564,-0.108917
402,0.166206,-0.182214,-0.094266
403,0.111121,-0.162845,-0.138588
404,0.106837,-0.075675,-0.195774
405,0.084304,-0.054613,-0.210006
406,0.057423,0.010988,-0.165496
407,-0.046844,0.180018,-0.309481
408,0.095434,0.27881,-0.580512
409,0.327389,0.399763,-0.267599
410,0.032029,0.382564,-0.047633
411,-0.226262,0.408527,-0.215334
412,0.017,0.143148,-0.300837
413,0.2312,0.112846,-0.192659
414,0.238144,0.129317,-0.039972
415,-0.224368,0.811457,0.167903
416,-0.483205,0.466577,0.371293
417,-0.482353,0.441547,0.381524
418,-0.312887,0.285661,0.264551
419,-0.361453,0.444716,0.199234
420,-0.345852,0.33184,0.375661
421,-0.035111,0.299826,0.594042
422,0.042014,0.046748,0.42502
423,0.032436,-0.071913,0.425703
424,0.014435,-0.158109,0.485065
425,-0.000131,-0.345527,0.511914
426,0.0571,-0.395342,0.52298
427,0.128902,-0.415033,0.539223
428,0.093345,-0.488113,0.471475
429,0.146264,-0.499977,0.454165
430,0.208115,-0.487324,0.402008
431,0.189034,-0.425468,0.270103
432,0.148598,-0.44365,0.18571
433,0.120584,-0.484841,0.05453
434,-0.143479,0.492042,-0.824545
435,-0.202967,1.275394,-0.913324
436,-0.791798,1.26625,-0.428564
437,0.275899,-0.699489,-0.810243
438,0.575646,-0.889215,-0.696157
439,0.60987,-0.714613,-0.370201
440,0.196006,-0.063633,0.145756
441,-0.396316,0.99502,0.727805
442,-0.919719,1.333169,1.005208
443,0.206684,-1.046705,0.758734
444,-0.126629,-0.790623,0.446321
445,0.506132,0.555451,0.251941
446,0.444489,1.18916,0.68378
447,-0.020477,0.622247,0.492446
448,-0.151831,-0.215683,0.116131
449,-0.131401,-0.292101,0.098019
450,-0.075616,-0.268551,0.113562
451,-0.138106,-0.081792,0.221266
452,-0.005821,-0.174328,0.236051
453,0.171814,-0.264926,0.233116
454,0.208501,-0.213174,0.102239
455,0.267147,-0.164312,-0.085021
456,0.275331,-0.20459,-0.141005
457,0.199903,-0.112541,-0.090509
458,0.120931,-0.03018,-0.115641
459,0.088812,-0.063705,-0.137546
460,0.042718,-0.042097,-0.158705
461,0.025278,0.030992,-0.246868
462,0.036931,0.378725,-0.503542
463,0.24738,0.508236,-0.386392
464,0.192937,0.437262,-0.109019
465,-0.16169,0.339296,-0.400703
466,0.007683,0.118576,-0.39835
467,0.142348,0.023325,-0.2292
468,0.160261,0.09109,0.022722
469,-0.100101,0.623801,0.165193
470,-0.40793,0.767282,0.599508
471,-0.451339,0.473577,0.398495
472,-0.234659,0.334365,0.30475
473,-0.276846,0.562882,-0.067815
474,-0.264131,0.573439,0.137427
475,-0.285351,0.413388,0.434755
476,-0.050923,-0.014167,0.470261
477,-0.052616,0.019013,0.533042
478,0.118686,-0.202882,0.435881
479,0.196001,-0.40739,0.460974
480,0.157548,-0.433244,0.562368
481,0.241353,-0.549096,0.612993
482,0.232257,-0.552367,0.487769
483,0.212207,-0.534273,0.467509
484,0.235803,-0.509705,0.438898
485,0.208479,-0.522778,0.240675
486,0.113123,-0.539991,-0.103102
487,-0.03432,-0.279467,-0.493518
488,-0.243801,0.423458,-0.8765
489,-0.488176,1.200096,-0.691456
490,-0.283455,0.346193,-0.498413
491,0.335825,-0.519573,-0.840963
492,0.479637,-0.697077,-0.453182
493,0.374351,0.207059,0.727111
494,-0.235862,1.236578,1.619991
495,-2.113845,2.893016,0.620696
496,0.528689,-1.730808,0.912766
497,0.143973,-1.326869,-0.123057
498,0.407552,1.345364,0.560763
499,0.095958,1.692875,0.718877
500,-0.054292,0.167901,0.490767
501,0.024965,-0.343466,0.163392
502,-0.040686,-0.459737,0.108518
503,-0.179152,-0.248384,0.141295
504,-0.079973,-0.287455,0.198211
505,0.093145,-0.334596,0.198941
506,0.150223,-0.229733,0.204226
507,0.196004,-0.16678,0.086117
508,0.371483,0.003472,-0.312243
509,0.385685,0.003413,-0.340018
510,0.139095,-0.054223,-0.274073
511,-0.009932,-0.04989,-0.188249
512,-0.109025,0.080389,-0.276182
513,0.044076,0.150253,-0.496803
514,0.478693,0.399363,-0.294943
515,0.433289,0.508693,-0.053667
516,0.169707,0.425875,-0.124969
517,-0.101814,0.329751,-0.120183
518,0.10937,0.051699,0.023656
519,-0.121443,0.451961,0.009773
520,-0.302666,0.599699,0.031786
521,-0.492403,0.403156,0.325827
522,-0.412853,0.574978,0.360546
523,-0.353071,0.546308,0.373394
524,-0.273657,0.318239,0.301105
525,-0.239147,0.307248,0.45228
526,-0.184135,0.326072,0.616203
527,-0.045824,-0.032852,0.515277
528,-0.070761,-0.239592,0.554377
529,-0.112483,-0.36908,0.580381
530,0.089803,-0.460979,0.464156
531,0.183675,-0.537409,0.459369
532,0.224138,-0.558218,0.457517
533,0.262166,-0.492348,0.458704
534,0.292382,-0.472051,0.449755
535,0.265359,-0.450742,0.361579
536,0.202388,-0.49971,0.221436
537,0.114612,-0.554166,-0.115035
538,-0.094051,0.117105,-0.716889
539,-0.155318,0.856485,-0.945053
540,-0.981222,1.846392,-0.500406
541,-0.104426,-0.793959,-0.770746
542,0.503928,-1.323006,-0.642904
543,0.719074,-0.928935,-0.239948
544,0.438471,0.337214,1.190889
545,-1.413931,1.627339,1.257589
546,-1.998351,2.687204,0.492169
547,0.558709,-1.403744,1.224992
548,0.394792,-1.368058,0.607934
549,0.504468,0.824575,0.505943
550,0.103582,1.448354,0.773274
551,-0.159468,0.341059,0.563657
552,-0.075753,-0.301693,0.255229
553,-0.074117,-0.519259,0.120348
554,-0.163591,-0.269832,0.171847
555,-0.074395,-0.096345,0.261397
556,0.080323,-0.09037,0.195855
557,0.143886,-0.202326,0.069147
558,0.252703,-0.133664,-0.06961
559,0.307063,-0.028929,-0.313521
560,0.267722,-0.118602,-0.231435
561,0.185825,-0.19227,-0.11929
562,-0.063348,-0.053747,-0.134596
563,0.012877,0.106984,-0.372085
564,0.102011,0.100394,-0.429894
565,0.151871,0.215929,-0.468976
566,0.353768,0.420336,-0.334545
567,0.252177,0.508639,-0.12449
568,-0.23136,0.357212,-0.356847
569,-0.052668,-0.053784,-0.276146
570,0.092253,0.093015,-0.135265
571,0.171533,0.18766,0.068202
572,-0.540101,0.826604,0.411401
573,-0.60888,0.437508,0.482912
574,-0.639538,0.36672,0.519017
575,-0.31776,0.405602,0.183747
576,-0.349556,0.509567,0.175295
577,-0.373326,0.501844,0.280345
578,-0.037445,0.217475,0.529048
579,0.039409,0.121106,0.509026
580,0.075016,-0.014566,0.486535
581,0.141854,-0.266788,0.495616
582,0.095818,-0.475529,0.460591
583,0.09075,-0.522696,0.60985
584,0.180103,-0.482748,0.584316
585,0.265837,-0.437728,0.444465
586,0.243691,-0.393881,0.367674
587,0.193941,-0.368045,0.262344
588,0.199562,-0.448479,0.218106
589,0.12763,-0.376226,-0.160919
590,-0.035921,-0.007063,-0.514757
591,-0.107807,0.476961,-0.800572
592,-0.943177,1.281886,-0.407841
593,-0.42917,-0.52031,-0.581392
594,0.077772,-0.989013,-0.642796
595,0.375889,-0.316381,-0.055327
596,-0.11281,0.505259,-0.141081
597,-0.989358,2.510359,0.902775
598,-0.056061,-0.596135,1.344646
599,0.340403,-1.235409,0.938699
600,-0.074176,0.273583,-0.09114
601,0.427625,1.28905,0.447774
602,0.125708,0.676503,0.572108
603,0.025558,-0.062601,0.364364
604,-0.037282,-0.18105,0.142868
605,-0.024419,-0.014573,0.12977
606,-0.058087,0.011441,0.184916
607,-0.018773,-0.10712,0.211403
608,0.026475,-0.252977,0.154183
609,0.089554,-0.225389,0.113368
610,0.190055,-0.042611,0.042932
611,0.26295,-0.050921,-0.103865
612,0.276899,-0.120699,-0.104338
613,0.275095,-0.167753,-0.094283
614,0.03645,-0.112272,-0.135028
615,0.007213,-0.018045,-0.233
616,0.050507,0.025478,-0.308042
617,0.087119,0.136312,-0.260475
618,0.085417,0.277963,-0.335601
619,0.222594,0.365322,-0.342724
620,-0.159093,0.268299,-0.237549
621,-0.243194,0.200439,-0.364854
622,-0.163924,0.083465,-0.384555
623,0.184406,-0.18802,-0.243937
624,0.184081,-0.032515,0.041303
625,0.003775,0.829563,0.198635
626,-0.444258,1.266047,0.580561
627,-0.655333,0.377048,0.401684
628,-0.264602,0.389931,0.539013
629,-0.163857,0.562556,0.27706
630,-0.191796,0.688465,0.194776
631,-0.099489,0.461412,0.517684
632,-0.05548,0.078055,0.5484
633,-0.042959,-0.225111,0.513198
634,0.11461,-0.3281,0.410383
635,0.221481,-0.402985,0.428885
636,0.192716,-0.411713,0.486388
637,0.151084,-0.443421,0.689655
638,0.300826,-0.548244,0.658553
639,0.285878,-0.540137,0.56076
640,0.194343,-0.399663,0.347477
641,0.174457,-0.495008,0.214153
642,0.164377,-0.435119,-0.039408
643,-0.010694,-0.216208,-0.299869
644,-0.130541,0.56661,-0.717512
645,-0.636184,2.120433,-0.666213
646,-0.703908,0.297341,-0.885914
647,0.359114,-1.158917,-0.911539
648,0.723222,-0.523031,-0.050526
649,0.396725,0.342831,0.521816
650,-1.022237,2.180555,0.894301
651,-0.738368,0.23379,0.612712
652,0.556265,-1.648089,1.3434
653,-0.398605,-0.223959,-0.269327
654,0.181651,0.700463,0.090341
655,0.213304,1.105269,0.793909
656,-0.015708,0.056775,0.420973
657,-0.086219,-0.354427,0.175763
658,0.011412,-0.247049,0.155127
659,0.015164,-0.012285,0.218035
660,0.036113,-0.042292,0.200954
661,0.067957,-0.108944,0.194007
662,0.156862,-0.219004,0.124051
663,0.179712,-0.174079,0.065148
664,0.22025,-0.08503,0.007036
665,0.29969,-0.079099,-0.130235
666,0.186863,-0.135199,-0.141018
667,0.147685,-0.145591,-0.129386
668,-0.034108,-0.017523,-0.117022
669,-0.006033,0.035719,-0.186082
670,0.03535,0.050986,-0.28857
671,0.305591,0.338948,-0.294474
672,0.452734,0.445002,-0.06626
673,0.120914,0.418767,-0.134954
674,-0.090565,0.274559,-0.423207
675,-0.037375,0.210424,-0.221532
676,0.074309,0.085863,-0.095482
677,-0.056708,0.085653,0.049007
678,-0.240197,0.324019,0.159167
679,-0.470667,0.432791,0.345733
680,-0.45463,0.504905,0.389287
681,-0.338334,0.367258,0.400906
682,-0.298311,0.513809,0.2285
683,-0.234007,0.485163,0.419747
684,-0.067597,0.433763,0.568045
685,0.076856,0.151545,0.414911
686,0.011656,-0.088971,0.476682
687,-0.033279,-0.175965,0.435158
688,0.062409,-0.340087,0.481592
689,0.16534,-0.413441,0.517987
690,0.181194,-0.424615,0.517775
691,0.242543,-0.456855,0.490005
692,0.222455,-0.524783,0.438011
693,0.176687,-0.42443,0.408203
694,0.21721,-0.411253,0.358431
695,0.15176,-0.506522,0.117132
696,0.121337,-0.482514,-0.04735
697,-0.063461,-0.01652,-0.428197
698,-0.234688,1.329,-0.667528
699,-0.883354,1.295219,-0.629726
700,-0.289443,-0.360986,-0.912769
701,0.469138,-0.994603,-0.613593
702,0.499138,-0.439192,-0.116389
703,0.182921,0.4581,0.312468
704,-0.941789,2.258531,1.246254
705,-0.58514,-0.021409,0.993204
706,0.212464,-1.319591,1.144761
707,0.403521,1.003674,0.146515
708,0.59616,1.546435,0.331779
709,0.073815,1.081898,0.898677
710,-0.19322,0.044466,0.379734
711,-0.183621,-0.224852,0.193469
712,-0.077325,-0.262457,0.119733
713,0.056981,-0.07698,0.166833
714,0.050039,-0.087777,0.12837
715,0.224432,-0.266726,0.175628
716,0.24025,-0.184271,0.194101
717,0.241084,-0.138215,0.148883
718,0.212049,-0.099575,-0.039918
719,0.16679,-0.180426,-0.126689
720,0.12398,-0.202703,-0.159283
721,-0.021839,-0.079916,-0.1671
722,0.0008,0.069532,-0.140061
723,0.033034,0.029133,-0.210172
724,0.230477,0.364544,-0.508925
725,0.429602,0.457949,-0.263653
726,0.348135,0.469775,-0.074808
727,-0.185648,0.293867,-0.291155
728,-0.084561,0.211156,-0.211729
729,0.12259,0.269393,0.007357
730,-0.014127,0.268956,0.040193
731,-0.349015,0.367605,0.177504
732,-0.368319,0.170407,0.347686
733,-0.45783,0.46175,0.353963
734,-0.343693,0.440984,0.315564
735,-0.380619,0.419027,0.203962
736,-0.334258,0.368115,0.568628
737,-0.071886,0.377048,0.732617
738,0.101365,0.328842,0.484304
739,-0.000748,-0.045164,0.347027
740,-0.034195,-0.224146,0.356846
741,0.005994,-0.314423,0.382352
742,0.121084,-0.453211,0.504113
743,0.199785,-0.395095,0.530421
744,0.217316,-0.415763,0.489231
745,0.25927,-0.421685,0.447339
746,0.236687,-0.375984,0.352976
747,0.19604,-0.316423,0.305592
748,0.2204,-0.377867,0.208381
749,0.155042,-0.421439,-0.01803
750,0.143584,-0.414666,-0.241049
751,-0.144396,0.384499,-0.741607
752,-0.581048,1.619528,-0.553038
753,-0.689232,0.511414,-0.613605
754,-0.297627,-0.337383,-0.7626
755,0.392821,-0.378671,0.102153
756,0.228404,-0.118098,0.290979
757,-0.236343,0.724608,0.355334
758,-0.040151,-0.813878,0.776857
759,0.710578,-1.266475,1.075886
760,-0.076641,-0.47449,0.112384
761,0.523325,1.570055,0.456001
762,0.306214,1.204887,0.629558
763,-0.099392,-0.218459,0.290208
764,-0.086353,-0.423708,0.128833
765,-0.027503,-0.078832,0.246484
766,-0.005709,0.069931,0.246846
767,0.075616,0.037525,0.232161
768,0.108776,-0.129153,0.203304
769,0.147859,-0.244844,0.036661
770,0.241854,-0.038883,-0.058253
771,0.31182,0.032408,-0.128997
772,0.277103,-0.131838,-0.070509
773,0.094479,-0.231587,0.057066
774,0.010244,-0.132107,0.04228
775,-0.008615,0.097847,-0.20985
776,0.054375,0.064161,-0.360008
777,0.079693,0.01742,-0.299267
778,0.237767,0.208116,-0.213827
779,0.397313,0.443197,-0.156909
780,0.197613,0.399646,-0.105587
781,-0.221895,0.26023,-0.314269
782,-0.19154,0.181713,-0.143826
783,-0.030913,0.178045,0.018905
784,-0.046196,0.249793,0.03809
785,-0.368978,0.217662,0.128739
786,-0.368733,0.07605,0.261654
787,-0.471694,0.288015,0.34591
788,-0.391576,0.362964,0.377666
789,-0.407607,0.420461,0.319507
790,-0.38072,0.4162,0.399067
791,0.016796,0.399698,0.565811
792,0.060223,0.246255,0.547763
793,-0.031163,0.00167,0.554351
794,-0.049824,-0.111197,0.430269
795,-0.025161,-0.296293,0.393482
796,0.067034,-0.360165,0.402211
797,0.186507,-0.426494,0.436791
798,0.302312,-0.465752,0.461617
799,0.283831,-0.498438,0.422673
800,0.273061,-0.494994,0.408704
801,0.250655,-0.458223,0.303672
802,0.230045,-0.553826,0.148284
803,0.185528,-0.500549,-0.184792
804,-0.061244,-0.062571,-0.550032
805,-0.420361,1.137312,-0.708819
806,-1.029441,1.381351,-0.501505
807,0.134049,-0.81196,-0.874671
808,0.436072,-0.415667,-0.162651
809,-0.04277,0.794924,0.418961
810,-0.917333,1.896782,1.256216
811,-0.06544,-1.286338,0.795697
812,-0.082072,-0.559804,0.728713
813,0.122014,0.932146,0.19003
814,0.472263,1.2211,0.644625
815,0.040773,0.329443,0.655197
816,-0.14098,-0.158991,0.215191
817,-0.10448,-0.107502,0.153065
818,-0.000276,-0.092871,0.238913
819,-0.086257,-0.131771,0.210177
820,-0.017109,-0.164185,0.212164
821,0.081485,-0.203809,0.219322
822,0.199255,-0.233845,0.132192
823,0.262873,-0.141236,0.02029
824,0.276949,-0.111624,-0.117246
825,0.19766,-0.137613,-0.172222
826,0.064021,-0.215522,-0.068588
827,-0.054147,-0.251412,0.014179
828,-0.088448,-0.014511,-0.189223
829,0.028431,0.11913,-0.366301
830,0.187271,0.253658,-0.337947
831,0.227866,0.292303,-0.25999
832,0.197892,0.37225,-0.074216
833,-0.124448,0.366993,-0.21018
834,-0.18089,0.388409,-0.157296
835,0.172954,0.23136,0.030413
836,-0.122894,0.403534,-0.005332
837,-0.463937,0.346412,0.124045
838,-0.514725,0.17989,0.34155
839,-0.327012,0.457921,0.366151
840,-0.366837,0.420688,0.350642
841,-0.444654,0.427449,0.280033
842,-0.179839,0.353774,0.602447
843,0.026618,0.367107,0.633733
844,0.067203,0.199148,0.440591
845,-0.053881,0.007598,0.410001
846,-0.109335,-0.257395,0.465082
847,0.026084,-0.350242,0.439897
848,0.132892,-0.478026,0.525053
849,0.198225,-0.485354,0.53627
850,0.248186,-0.44599,0.509975
851,0.256598,-0.411818,0.487004
852,0.266478,-0.482257,0.394206
853,0.227069,-0.393128,0.269425
854,0.189788,-0.410766,-0.004458
855,0.136281,-0.329936,-0.196208
856,0.009196,-0.167009,-0.398449
857,-1.183453,1.26955,-0.693143
858,-1.02914,0.875709,-0.658802
859,-0.701774,0.096901,-0.490692
860,0.141503,-0.164388,-0.160178
861,-0.112031,0.313752,-0.021134
862,-0.595533,1.237674,1.190315
863,0.206132,-1.468509,1.399285
864,0.243591,-0.899801,1.033242
865,0.395729,1.158757,0.349992
866,0.427284,0.960055,0.585555
867,0.287769,0.462855,0.436082
868,-0.018578,-0.237558,0.088142
869,0.072044,-0.060309,0.139326
870,0.043614,0.074934,0.312804
871,-0.046915,-0.089422,0.300457
872,-0.066606,-0.172962,0.247142
873,-0.033976,-0.226378,0.260466
874,0.076216,-0.158831,0.161103
875,0.129375,-0.074395,-0.013133
876,0.170491,0.035172,-0.103749
877,0.223604,-0.033488,-0.080978
878,0.134438,-0.091352,-0.095665
879,-0.03287,-0.142995,-0.126587
880,-0.098468,-0.033958,-0.252827
881,0.053572,0.088679,-0.35046
882,0.218802,0.212233,-0.261499
883,0.289854,0.307456,-0.172414
884,0.198184,0.413746,-0.036346
885,-0.055489,0.34816,-0.091515
886,-0.369548,0.068432,-0.362662
887,-0.076192,0.130954,-0.132161
888,0.107942,0.106987,-0.066181
889,0.031567,0.509819,0.014881
890,-0.344257,0.518317,0.326951
891,-0.460556,0.37744,0.436413
892,-0.466186,0.287182,0.461706
893,-0.425725,0.487545,0.284168
894,-0.487508,0.414866,0.312035
895,-0.262278,0.409158,0.630662
896,-0.00055,0.324905,0.636852
897,0.050322,0.168627,0.438008
898,-0.003592,-0.086297,0.49213
899,0.024113,-0.314851,0.538445
900,0.026903,-0.455466,0.594826
901,0.057318,-0.524117,0.615919
902,0.249025,-0.514289,0.521457
903,0.252674,-0.494998,0.505298
904,0.246988,-0.509267,0.459922
905,0.24836,-0.451566,0.339261
906,0.234553,-0.48559,0.254651
907,0.080173,-0.390467,-0.164018
908,-0.078249,0.166255,-0.638866
909,-0.152315,0.822396,-0.960237
910,-1.148096,0.947585,-0.524132
911,-0.75679,0.056697,-0.620556
912,0.071579,-0.987767,-0.648394
913,0.249824,-0.052339,-0.029084
914,0.237874,0.250858,0.25239
915,-1.047451,1.202276,0.531262
916,-0.15051,-0.596874,0.737243
917,0.097566,-0.622456,0.875391
918,0.44707,0.855548,0.198907
919,0.583824,1.181517,0.677378
920,0.145206,0.477473,0.520182
921,-0.16079,-0.078789,0.282445
922,-0.163067,-0.267807,0.24036
923,-0.15374,-0.14046,0.308139
924,-0.196087,-0.111721,0.243415
925,-0.083577,-0.217003,0.28159
926,0.128873,-0.280882,0.277773
927,0.208047,-0.184385,0.175552
928,0.26192,-0.069603,-0.055952
929,0.282727,-0.104759,-0.205161
930,0.277153,-0.148716,-0.249916
931,0.019155,-0.176973,-0.08375
932,-0.134731,-0.078077,-0.128038
933,-0.107822,0.096055,-0.31216
934,-0.013428,0.123296,-0.494804
935,0.404789,0.346147,-0.159019
936,0.309985,0.429416,-0.148242
937,0.115888,0.385766,-0.178667
938,-0.282963,-0.078945,-0.329028
939,-0.185592,-0.160306,-0.213365
940,-0.056469,-0.062769,-0.170155
941,0.287083,0.481353,0.156844
942,0.066527,1.078235,0.380883
943,-0.169315,1.258209,0.694131
944,-0.690233,0.139457,0.538884
945,-0.700745,0.189988,0.559211
946,-0.539045,0.382356,0.387578
947,-0.207354,0.68632,0.279714
948,-0.023214,0.575236,0.479956
949,0.128798,-0.030774,0.544931
950,0.197629,-0.295592,0.622761
951,0.19738,-0.359601,0.671372
952,0.130518,-0.634413,0.587374
953,0.208879,-0.637931,0.703953
954,0.334914,-0.657424,0.711733
955,0.288015,-0.569402,0.575922
956,0.191614,-0.516119,0.388538
957,0.177775,-0.552426,0.284802
958,0.088549,-0.465359,-0.215433
959,-0.1964,-0.074669,-0.568442
960,-0.426906,1.251479,-0.842289
961,-1.05289,1.282743,-0.594553
962,-0.171227,-0.390627,-0.734647
963,0.416504,-0.797506,-0.524246
964,0.008706,0.269903,-0.21166
965,-0.539908,2.220811,0.534771
966,-0.607711,0.216431,1.080271
967,0.756482,-2.014835,1.736194
968,-0.492041,0.006981,-0.299569
969,0.534446,1.812183,0.379138
970,0.273246,1.197705,0.909455
971,-0.114293,-0.121715,0.592424
972,-0.206156,-0.407507,0.222462
973,-0.170462,-0.106357,0.107371
974,-0.048438,0.020809,0.219855
975,0.036686,-0.05889,0.157612
976,0.104075,-0.137391,0.186832
977,0.147552,-0.209186,0.206994
978,0.165084,-0.231087,0.05148
979,0.21611,-0.19793,-0.084467
980,0.283221,-0.063981,-0.172834
981,0.221571,-0.125327,-0.166087
982,0.04518,-0.225105,0.002627
983,-0.014095,-0.233611,-0.013748
984,-0.03773,-0.109693,-0.126095
985,0.064426,0.134583,-0.376224
986,0.107521,0.1676,-0.355833
987,0.3615,0.259747,-0.258366
988,0.320355,0.382006,-0.111846
989,-0.150118,0.268289,-0.39281
990,-0.119714,-0.062047,-0.359327
991,0.054116,-0.005589,-0.03269
992,-0.185536,0.726141,0.144235
993,-0.41935,1.040475,0.355587
994,-0.620019,0.922926,0.477208
995,-0.603745,0.40299,0.575465
996,-0.531864,0.62921,0.596444
997,-0.438634,0.722496,0.506869
998,-0.047912,0.598509,0.583777
999,0.011767,0.533392,0.628252
1000,0.032355,0.414631,0.575901
1001,0.051,-0.393085,0.543884
1002,0.115825,-0.400683,0.57354
1003,0.173015,-0.370691,0.603881
1004,0.065258,-0.629186,0.631077
1005,0.193992,-0.618813,0.683266
1006,0.340236,-0.595417,0.602059
1007,0.33004,-0.52626,0.56549
1008,0.253861,-0.407132,0.423222
1009,0.12543,-0.563759,0.00606
1010,0.098683,-0.482038,-0.290354
1011,-0.299781,0.455604,-0.91497
1012,-0.935264,1.835401,-0.454919
1013,-0.663509,0.568846,-0.53229
1014,0.277438,-1.025051,-0.892186
1015,0.30772,-0.520651,-0.198432
1016,0.110372,0.632081,-0.05141
1017,-0.489035,2.395011,1.1101
1018,-0.19371,-1.223147,1.437331
1019,-0.013871,-0.761584,0.790108
1020,0.060976,0.769198,0.125194
1021,0.460668,1.513922,0.551345
1022,0.079252,0.571248,0.749778
1023,-0.103377,-0.044872,0.36743
1024,-0.098498,-0.072529,0.113881
1025,-0.062062,-0.008068,0.212816
1026,-0.051362,-0.207622,0.254146
1027,0.006918,-0.32797,0.232661
1028,0.096812,-0.220562,0.29064
1029,0.130307,-0.170201,0.2567
1030,0.157812,-0.165361,0.166358
1031,0.250559,-0.147368,-0.149171
1032,0.254175,-0.160022,-0.229222
1033,0.231179,-0.155213,-0.245208
1034,0.010306,-0.192558,0.043238
1035,-0.013682,-0.124667,-0.054628
1036,-0.030938,0.062257,-0.229308
1037,0.139702,0.179765,-0.389125
1038,0.223665,0.271182,-0.316469
1039,0.270508,0.363291,-0.225475
1040,-0.218136,0.23788,-0.325835
1041,-0.25734,0.148246,-0.375173
1042,-0.224782,0.006718,-0.270937
1043,0.127249,0.259632,0.021065
1044,-0.045904,0.669697,0.12147
1045,-0.238751,0.885084,0.334228
1046,-0.440313,0.519619,0.44274
1047,-0.364612,0.415913,0.454238
1048,-0.36721,0.60944,0.218846
1049,-0.428472,0.452917,0.314983
1050,-0.289547,0.406135,0.646858
1051,0.057625,0.222309,0.440503
1052,0.042881,-0.045629,0.51793
1053,-0.007284,-0.127722,0.544232
1054,0.102175,-0.45703,0.561127
1055,0.14464,-0.652707,0.619564
1056,0.258004,-0.617646,0.686125
1057,0.354845,-0.547814,0.589707
1058,0.316119,-0.514208,0.49953
1059,0.217417,-0.439762,0.354402
1060,0.176479,-0.502232,0.204151
1061,0.10372,-0.511615,-0.150408
1062,-0.140663,-0.135426,-0.554446
1063,-0.403578,0.936591,-0.834697
1064,-1.090621,1.576571,-0.2943
1065,-0.503404,-0.070076,-0.76477
1066,0.22085,-1.024544,-0.844254
1067,0.088549,0.083374,-0.269879
1068,-0.243125,2.099778,0.419621
1069,-0.224945,0.274257,1.121359
1070,0.618111,-1.498585,1.645585
1071,-0.340185,0.21476,-0.001957
1072,0.116563,1.088763,0.262644
1073,0.19555,1.221921,0.822168
1074,-0.001642,0.458689,0.779046
1075,-0.194939,-0.30316,0.126979
1076,-0.036927,-0.127884,0.140601
1077,0.03077,-0.02749,0.242613
1078,0.02533,-0.062407,0.235416
1079,0.1318,-0.303779,0.201344
1080,0.125602,-0.311045,0.162826
1081,0.137001,-0.252258,0.052358
1082,0.184185,-0.157892,-0.121789
1083,0.214895,-0.205883,-0.209372
1084,0.233327,-0.22703,-0.185778
1085,0.111624,-0.063697,0.101283
1086,0.091306,-0.047041,0.095275
1087,0.051269,0.228491,-0.371866
1088,0.065078,0.163748,-0.604624
1089,0.31444,0.284676,-0.259387
1090,0.464618,0.38468,0.062297
1091,-0.029843,0.432471,-0.278359
1092,-0.177555,0.177077,-0.390484
1093,0.027474,0.020043,-0.015228
1094,-0.083518,0.640394,0.091593
1095,-0.086646,0.637123,0.149974
1096,-0.380255,0.588759,0.427339
1097,-0.445686,0.411675,0.393631
1098,-0.381665,0.441898,0.512465
1099,-0.403997,0.746965,0.353219
1100,-0.481745,0.653013,0.349752
1101,-0.135201,0.515374,0.666022
1102,0.157941,0.261334,0.524415
1103,0.041823,0.085414,0.515079
1104,-0.047787,-0.275357,0.549494
1105,0.041989,-0.52994,0.52221
1106,0.192775,-0.578467,0.572997
1107,0.255253,-0.539268,0.635373
1108,0.278611,-0.537458,0.599978
1109,0.237272,-0.522683,0.521832
1110,0.217566,-0.467037,0.450155
1111,0.214282,-0.515733,0.306645
1112,0.186863,-0.497872,0.054609
1113,0.011126,-0.203188,-0.297997
1114,-0.331531,0.752793,-0.740799
1115,-1.134881,1.890613,-0.605283
1116,-1.064624,1.184282,-0.572678
1117,0.311901,-0.972374,-0.857825
1118,0.618186,-0.436647,-0.254004
1119,0.493173,0.481604,0.221093
1120,-0.413748,2.143991,0.950463
1121,-0.506605,-0.580764,1.400075
1122,-0.085693,-0.762669,0.749404
1123,0.124163,0.393426,0.172047
1124,0.523465,1.219822,0.536281
1125,0.131319,0.765702,0.759094
1126,0.003965,0.300583,0.614041
1127,0.03742,-0.149712,0.290705
1128,0.019149,-0.173068,0.242173
1129,-0.006041,-0.020734,0.242134
1130,0.051133,-0.098678,0.186547
1131,0.111649,-0.170213,0.154404
1132,0.143783,-0.214353,0.045698
1133,0.255058,-0.136276,-0.074217
1134,0.294266,-0.119806,-0.105025
1135,0.230661,-0.153761,-0.073309
1136,0.099325,-0.229546,0.027007
1137,0.100962,-0.228048,-0.003328
1138,0.002788,0.004807,-0.161182
1139,0.069855,0.112144,-0.278943
1140,0.091843,0.18856,-0.322754
1141,0.42635,0.315158,-0.174112
1142,0.328437,0.416307,0.013421
1143,-0.131072,0.280844,-0.32688
1144,-0.054221,0.118543,-0.268333
1145,0.066995,0.094473,0.003985
1146,0.05023,0.19814,0.056872
1147,-0.295743,0.630553,0.167584
1148,-0.453253,0.427972,0.395085
1149,-0.474577,0.50076,0.500656
1150,-0.303187,0.562434,0.526675
1151,-0.392588,0.777149,0.351269
1152,-0.471412,0.575891,0.40479
1153,-0.030012,0.497092,0.636705
1154,0.123523,0.410101,0.637954
1155,0.123206,0.093614,0.453798
1156,-0.0472,-0.360876,0.512263
1157,0.019145,-0.608053,0.554636
1158,0.204375,-0.69018,0.607901
1159,0.354559,-0.66277,0.615502
1160,0.379377,-0.538653,0.595216
1161,0.300304,-0.440436,0.491579
1162,0.237424,-0.366809,0.397623
1163,0.255103,-0.414898,0.286575
1164,0.187326,-0.456068,0.172918
1165,-0.04481,-0.282123,-0.29233
1166,-0.212148,0.448991,-0.733078
1167,-0.253846,1.36477,-0.838575
1168,-0.752988,0.687847,-0.649326
1169,0.097116,-1.032853,-0.859804
1170,0.301515,-0.99801,-0.491665
1171,0.213399,0.398959,0.133233
1172,-0.422983,2.075901,1.044971
1173,-0.509254,-0.43594,0.907117
1174,0.326538,-1.183036,1.113856
1175,-0.179979,0.305621,-0.157079
1176,0.561124,1.44988,0.422212
1177,0.268043,0.878667,0.785398
1178,-0.007257,0.085144,0.469557
1179,-0.03336,-0.06314,0.25838
1180,-0.006813,-0.014743,0.233073
1181,0.026236,-0.010437,0.270556
1182,0.029373,-0.077315,0.241896
1183,0.115407,-0.190507,0.21922
1184,0.169415,-0.168698,0.227707
1185,0.185275,-0.158911,0.17545
1186,0.185529,-0.197968,0.028072
1187,0.182362,-0.181803,-0.041269
1188,0.189714,-0.203974,-0.103306
1189,0.12177,-0.185917,-0.052985
1190,0.021471,-0.089219,-0.069558
1191,0.011517,0.015563,-0.188681
1192,0.078902,0.043654,-0.34395
1193,0.274274,0.216576,-0.371363
1194,0.521919,0.402187,-0.234679
1195,0.372398,0.497407,-0.119678
1196,-0.087547,0.2489,-0.413834
1197,-0.101598,0.048885,-0.246949
1198,0.057672,0.087289,0.018913
1199,-0.136318,0.784988,0.201825
1200,-0.446024,0.955532,0.407524
1201,-0.652092,0.781334,0.528123
1202,-0.634909,0.451827,0.661232
1203,-0.381002,0.698165,0.431691
1204,-0.408173,0.754871,0.250553
1205,-0.14504,0.531274,0.589397
1206,0.010278,0.277254,0.55062
1207,0.005356,-0.086276,0.478008
1208,0.092978,-0.376973,0.533655
1209,0.232862,-0.60434,0.586032
1210,0.25002,-0.581262,0.559985
1211,0.175146,-0.52868,0.739486
1212,0.223143,-0.484619,0.750825
1213,0.276486,-0.516168,0.535076
1214,0.256941,-0.474053,0.454511
1215,0.1987,-0.378663,0.314998
1216,0.150389,-0.450063,0.058613
1217,0.104466,-0.350202,-0.314598
1218,-0.101985,0.172737,-0.591578
1219,-0.39888,1.690899,-0.640672
1220,-0.902193,1.155883,-0.529508
1221,-0.182489,-0.792812,-0.725538
1222,0.248329,-0.784193,-0.362428
1223,0.169079,0.085185,0.042031
1224,-0.039344,1.389266,0.651237
1225,-0.796362,0.798864,1.010412
1226,0.279476,-1.235837,1.245325
1227,-0.006159,-0.67159,0.682598
1228,0.605642,1.247315,0.251804
1229,0.492527,1.088774,0.758083
1230,-0.016062,0.130406,0.514223
1231,-0.10605,-0.142235,0.318557
1232,0.0282,-0.034216,0.256961
1233,0.039821,0.077468,0.322016
1234,0.017838,-0.097775,0.281172
1235,-0.027282,-0.25364,0.261486
1236,0.053173,-0.26328,0.230535
1237,0.125315,-0.252978,0.173838
1238,0.234721,-0.161913,0.016964
1239,0.259087,-0.114637,-0.024081
1240,0.258257,-0.062559,-0.068006
1241,0.066516,-0.242429,-0.085975
1242,0.013198,-0.249689,-0.121188
1243,-0.030561,-0.172416,-0.178215
1244,0.040562,0.116323,-0.233075
1245,0.115775,0.152505,-0.262767
1246,0.215001,0.177667,-0.270995
1247,0.054835,0.326268,-0.05464
1248,-0.201739,0.256073,-0.421945
1249,-0.11737,0.055242,-0.241251
1250,0.068249,0.092264,-0.021517
1251,0.118,0.238126,0.043846
1252,-0.300154,0.992594,0.330918
1253,-0.580277,0.702595,0.504181
1254,-0.548976,0.626137,0.643581
1255,-0.36171,0.579901,0.552757
1256,-0.41387,0.72849,0.317964
1257,-0.22369,0.634231,0.544422
1258,-0.007224,0.454223,0.509999
1259,0.057448,0.074925,0.339251
1260,0.066534,-0.322406,0.428859
1261,0.10861,-0.481197,0.472338
1262,0.238745,-0.577988,0.576053
1263,0.284774,-0.54501,0.729327
1264,0.279625,-0.481257,0.737472
1265,0.234346,-0.457845,0.58324
1266,0.219197,-0.491154,0.451682
1267,0.207534,-0.503775,0.325245
1268,0.156713,-0.503165,0.128077
1269,0.133998,-0.35355,-0.263151
1270,-0.181247,0.117462,-0.548861
1271,-0.306778,1.50011,-0.667043
1272,-0.58228,1.798622,-0.507077
1273,-0.13272,-0.58534,-0.867264
1274,0.2445,-0.525929,-0.129656
1275,0.188948,-0.172989,0.020315
1276,0.001373,1.178142,0.749689
1277,-1.028717,1.700704,0.875604
1278,0.2781,-1.148887,1.173543
1279,0.288334,-1.019489,0.923651
1280,0.52894,1.294646,0.515198
1281,0.398275,1.268865,0.700329
1282,0.163221,0.987959,0.768688
1283,-0.072313,-0.154488,0.32713
1284,-0.102689,-0.178136,0.224528
1285,-0.100919,-0.096497,0.187829
1286,-0.00926,-0.213493,0.219623
1287,0.041513,-0.281886,0.208279
1288,0.084089,-0.310087,0.229011
1289,0.233795,-0.242364,0.150392
1290,0.269748,-0.223078,0.059118
1291,0.303846,-0.175245,0.012335
1292,0.186885,-0.11183,-0.120955
1293,0.0548,-0.185823,-0.158972
1294,-0.014315,-0.0936,-0.137693
1295,-0.013471,0.20554,-0.213559
1296,-0.00206,0.257085,-0.276489
1297,0.299763,0.376985,-0.316462
1298,0.354693,0.454052,-0.07345
1299,-0.127859,0.315563,-0.263238
1300,-0.195456,0.104239,-0.400176
1301,-0.038693,-0.025496,-0.223303
1302,0.04252,-0.073964,-0.16311
1303,0.193733,0.435839,0.100035
1304,-0.010196,0.824597,0.287254
1305,-0.539349,0.858665,0.621017
1306,-0.454907,0.324656,0.743922
1307,-0.240523,0.628303,0.458889
1308,-0.231437,0.865936,0.127797
1309,-0.084919,0.776601,0.515511
1310,0.028446,0.388438,0.652756
1311,0.051155,0.14078,0.664453
1312,0.070019,-0.320154,0.629535
1313,0.059491,-0.453111,0.506345
1314,0.187835,-0.550722,0.561007
1315,0.219246,-0.55362,0.67685
1316,0.220437,-0.474525,0.700299
1317,0.231825,-0.467047,0.638243
1318,0.208291,-0.51863,0.488542
1319,0.190701,-0.480991,0.349681
1320,0.17173,-0.541257,0.233096
1321,0.095077,-0.244208,-0.263101
1322,-0.157167,0.471565,-0.699358
1323,-0.691452,1.787736,-0.75557
1324,-0.769512,0.543777,-0.536696
1325,0.070466,-0.736391,-0.72331
1326,0.559555,-0.388299,-0.370134
1327,0.448923,0.572494,-0.062699
1328,-0.226954,2.347272,0.973191
1329,-0.3871,-0.806757,1.358966
1330,0.059793,-0.929137,0.939058
1331,-0.059687,0.495221,-0.003153
1332,0.701145,1.46018,0.581586
1333,0.256797,0.774514,0.968969
1334,-0.051691,0.034225,0.551277
1335,-0.086778,-0.070347,0.371242
1336,-0.046713,0.04253,0.056162
1337,0.058851,-0.020985,0.109932
1338,0.133638,-0.155103,0.132568
1339,0.164685,-0.277378,0.191088
1340,0.156436,-0.296477,0.185752
1341,0.203141,-0.267691,0.084636
1342,0.281866,-0.155749,0.018134
1343,0.285859,-0.075247,-0.115052
1344,0.188231,-0.138044,-0.018748
1345,0.107723,-0.139996,0.098175
1346,-0.038128,0.029251,-0.024978
1347,-0.086038,0.17574,-0.323347
1348,0.030375,0.177998,-0.485501
1349,0.426874,0.279428,-0.298446
1350,0.646382,0.483013,-0.005888
1351,0.277951,0.463533,-0.190894
1352,-0.0352,0.136105,-0.136468
1353,0.140818,0.148853,0.040176
1354,0.269992,0.260321,0.128338
1355,-0.436814,0.618048,0.306582
1356,-0.451122,0.405748,0.498988
1357,-0.38998,0.475944,0.611213
1358,-0.44749,0.628538,0.446967
1359,-0.574228,0.647662,0.440716
1360,-0.320057,0.38491,0.610279
1361,0.056525,0.316038,0.746238
1362,0.267655,0.241924,0.510977
1363,0.147295,-0.192212,0.638283
1364,0.081423,-0.400475,0.557947
1365,0.064539,-0.550507,0.544543
1366,0.219758,-0.562664,0.614807
1367,0.31967,-0.618032,0.644425
1368,0.267817,-0.505086,0.570221
1369,0.278022,-0.412516,0.460098
1370,0.249092,-0.38133,0.341205
1371,0.211999,-0.446283,0.182769
1372,0.158072,-0.479076,-0.130252
1373,0.015081,-0.083563,-0.511891
1374,-0.200526,1.233551,-0.845015
1375,-1.012734,1.776883,-0.503696
1376,-0.330519,-0.288311,-0.78326
1377,0.418328,-1.087145,-0.551317
1378,0.475917,-0.297892,0.073846
1379,0.156147,1.059959,0.541828
1380,-0.996627,2.79796,0.906979
1381,0.188894,-1.561254,1.575859
1382,-0.147131,-0.778048,0.352651
1383,-0.329902,0.005132,-0.388405
1384,0.524647,1.534851,0.618374
1385,0.150065,0.592764,0.694137
1386,0.031412,-0.013145,0.41034
1387,-0.018869,-0.155757,0.1774
1388,0.039036,-0.171321,0.232657
1389,-0.008715,-0.154894,0.260031
1390,-0.089093,-0.205382,0.184461
1391,0.133925,-0.230758,0.248212
1392,0.163756,-0.241364,0.183178
1393,0.199985,-0.266125,0.064988
1394,0.368204,-0.053635,-0.167734
1395,0.385585,-0.042112,-0.187536
1396,0.330017,-0.109783,-0.129261
1397,-0.026839,-0.01336,-0.006088
1398,-0.044511,0.084493,-0.178289
1399,-0.010486,0.112947,-0.349819
1400,0.379446,0.278922,-0.218483
1401,0.560262,0.498102,0.07012
1402,0.133274,0.50582,-0.141095
1403,-0.132776,0.25277,-0.347814
1404,0.109026,0.215532,0.056814
1405,0.183328,0.297114,0.114599
1406,-0.304259,0.615948,0.074407
1407,-0.47529,0.512921,0.207568
1408,-0.449142,0.435387,0.475529
1409,-0.304376,0.557068,0.508599
1410,-0.295812,0.537755,0.486107
1411,-0.450246,0.429393,0.429256
1412,-0.260522,0.341878,0.638619
1413,-0.03378,0.339923,0.737721
1414,0.217032,0.143052,0.524211
1415,0.07691,-0.175855,0.627178
1416,0.103347,-0.364506,0.540014
1417,0.132301,-0.577091,0.507591
1418,0.209972,-0.536566,0.577695
1419,0.350154,-0.568964,0.592049
1420,0.268126,-0.405782,0.520353
1421,0.241695,-0.381886,0.442733
1422,0.213712,-0.36394,0.336343
1423,0.150943,-0.464396,0.185723
1424,0.037626,-0.238439,-0.307708
1425,-0.030287,-0.006515,-0.521726
1426,-0.27438,1.365932,-0.818349
1427,-1.045917,1.545477,-0.457806
1428,-0.807182,0.564767,-0.54625
1429,0.418257,-0.886552,-0.479733
1430,0.311869,0.055397,0.013268
1431,0.022082,1.749674,1.187905
1432,-0.802028,0.447905,1.089895
1433,0.369036,-1.2206,1.05905
1434,-0.183236,0.270422,-0.180906
1435,0.519702,1.327513,0.405014
1436,0.306222,0.927473,0.636378
1437,0.060413,0.162039,0.482631
1438,0.064134,0.091603,0.248033
1439,0.051442,-0.038275,0.217554
1440,0.040082,-0.094061,0.293905
1441,-0.021971,-0.230439,0.26115
1442,0.017393,-0.242514,0.215886
1443,0.104803,-0.253532,0.209555
1444,0.171671,-0.264781,0.186341
1445,0.225972,-0.144585,0.06545
1446,0.217086,-0.103218,-0.002441
1447,0.220996,-0.073511,-0.102998
1448,0.165644,-0.154617,-0.081892
1449,0.069678,0.06247,-0.073296
1450,0.059578,0.213593,-0.177915
1451,0.095512,0.187314,-0.348965
1452,0.262828,0.21082,-0.339922
1453,0.449365,0.512332,0.078163
1454,-0.181853,0.355407,-0.255834
1455,-0.203425,0.194775,-0.435247
1456,0.120712,0.135668,-0.007578
1457,0.156824,0.301077,0.088219
1458,-0.145657,0.701572,0.177442
1459,-0.410858,0.389493,0.484987
1460,-0.440263,0.329495,0.502061
1461,-0.409399,0.424699,0.619941
1462,-0.316129,0.681837,0.365828
1463,-0.352199,0.534136,0.354531
1464,-0.337916,0.453165,0.554196
1465,0.094856,0.317095,0.671962
1466,0.195089,0.096072,0.511516
1467,0.115539,-0.016305,0.572171
1468,0.135226,-0.359498,0.506622
1469,0.10098,-0.587401,0.553576
1470,0.117826,-0.532116,0.605957
1471,0.375057,-0.500205,0.680413
1472,0.275006,-0.377006,0.583825
1473,0.255997,-0.393379,0.514434
1474,0.266871,-0.384386,0.31197
1475,0.209451,-0.477027,0.061838
1476,0.004156,-0.309735,-0.280184
1477,-0.363586,0.086423,-0.535475
1478,-0.599969,1.718319,-0.443897
1479,-0.46797,1.334765,-0.364157
1480,0.134206,-0.470712,-0.921728
1481,0.536233,-0.858416,-0.508984
1482,0.451399,-0.535766,-0.269653
1483,0.525939,0.913601,0.944366
1484,-0.787473,2.382751,0.656051
1485,-0.640207,-0.921283,1.539013
1486,-0.465726,-0.976481,0.429635
1487,0.248502,0.542017,0.185157
1488,0.741149,1.581559,0.633388
1489,0.270393,0.895608,0.705381
1490,-0.002644,0.014739,0.402545
1491,-0.04095,-0.476216,0.206138
1492,-0.170822,-0.380841,0.267545
1493,-0.216034,-0.207411,0.308887
1494,-0.047024,-0.163271,0.258839
1495,0.120006,-0.161763,0.249675
1496,0.225125,-0.231825,0.122069
1497,0.304087,-0.027932,-0.003158
1498,0.383175,-0.077454,-0.149653
1499,0.136802,-0.267959,0.077101
1500,0.056852,-0.230743,0.05959
1501,0.071274,-0.090988,-0.184723
1502,0.161229,0.061565,-0.201994
1503,0.23141,0.229282,-0.201499
1504,0.128512,0.314183,-0.307744
1505,0.295239,0.353587,-0.227958
1506,0.220871,0.328583,-0.018001
1507,-0.273516,0.284635,-0.317818
1508,-0.081535,0.080246,-0.144735
1509,0.110397,0.189305,-0.032312
1510,0.218846,0.351468,0.075454
1511,-0.194083,0.787782,0.273962
1512,-0.497256,0.524397,0.425332
1513,-0.397266,0.489681,0.583557
1514,-0.133226,0.486845,0.463918
1515,-0.234628,0.661093,0.329377
1516,-0.213216,0.50503,0.499296
1517,-0.046622,0.376424,0.794813
1518,0.125686,0.368155,0.700476
1519,0.114159,0.179032,0.584683
1520,0.081699,0.010165,0.582293
1521,0.051828,-0.354796,0.541375
1522,0.199632,-0.607616,0.561674
1523,0.286048,-0.534246,0.609582
1524,0.303836,-0.525665,0.605819
1525,0.261873,-0.458842,0.574431
1526,0.263651,-0.469203,0.42881
1527,0.261467,-0.48764,0.410003
1528,0.070502,-0.46184,-0.087688
1529,-0.341204,0.253294,-0.612873
1530,-0.395569,0.852043,-0.693355
1531,-0.524064,1.464586,-0.570977
1532,-0.06759,0.101176,-0.644417
1533,0.253349,-0.445387,-0.835845
1534,0.428147,-0.059132,-0.260676
1535,0.177743,1.197918,0.321794
1536,-0.469851,0.165753,1.398011
1537,0.067601,-1.498607,1.269761
1538,-0.361436,0.08366,-0.320272
1539,0.361187,1.017233,0.29175
1540,0.258824,1.062397,0.918312
1541,-0.007185,0.180652,0.645572
1542,-0.033917,-0.065994,0.3009
1543,-0.01097,-0.105698,0.163072
1544,0.039412,-0.100837,0.272471
1545,0.090408,-0.164437,0.204954
1546,0.141832,-0.22233,0.212085
1547,0.179225,-0.222456,0.18381
1548,0.179711,-0.259141,0.026188
1549,0.27694,-0.196191,-0.055592
1550,0.383417,-0.08916,-0.067928
1551,0.185752,-0.194653,0.004303
1552,0.111269,-0.199333,0.07194
1553,0.023472,0.073827,-0.141395
1554,0.058055,0.145664,-0.215251
1555,0.316246,0.248153,-0.302691
1556,0.552241,0.550881,-0.186665
1557,0.216487,0.546803,-0.210136
1558,-0.181479,0.286178,-0.433169
1559,-0.123277,-0.044244,-0.216196
1560,-0.060494,-0.065,-0.028082
1561,0.068364,0.3621,0.101193
1562,-0.251574,0.894448,0.371703
1563,-0.43526,0.794206,0.551625
1564,-0.444154,0.472277,0.756381
1565,-0.296565,0.616841,0.634356
1566,-0.306065,0.806804,0.22747
1567,-0.245213,0.616332,0.411412
1568,-0.023677,0.33788,0.72373
1569,0.084017,0.272867,0.680711
1570,0.104822,-0.206176,0.580605
1571,0.195755,-0.459283,0.525365
1572,0.232858,-0.613918,0.48849
1573,0.14898,-0.634546,0.644761
1574,0.190452,-0.550173,0.716151
1575,0.284881,-0.473359,0.632316
1576,0.262726,-0.398211,0.495034
1577,0.214164,-0.396861,0.318595
1578,0.171036,-0.460278,0.207819
1579,0.158003,-0.502819,0.023152
1580,-0.210077,0.046485,-0.516589
1581,-0.333502,0.53669,-0.716699
1582,-0.667484,1.730175,-0.481286
1583,-0.108603,-0.345598,-0.932225
1584,0.176125,-0.961935,-0.808224
1585,0.133672,0.019224,-0.079354
1586,0.058858,1.88856,1.103954
1587,-0.769012,0.587401,1.114784
1588,0.369879,-1.297218,1.289472
1589,-0.317278,0.208475,-0.13063
1590,0.25719,0.961874,0.331671
1591,0.344599,1.011088,0.808014
1592,0.052832,0.088519,0.56955
1593,0.006581,-0.09016,0.396254
1594,0.052585,-0.10791,0.247614
1595,-0.006658,-0.102003,0.298171
1596,0.041423,-0.175461,0.294966
1597,0.103272,-0.233775,0.229568
1598,0.145087,-0.264315,0.169159
1599,0.201741,-0.271489,0.071885
1600,0.277457,-0.048339,-0.036253
1601,0.206194,-0.097847,-0.021802
1602,0.081816,-0.084289,0.020219
1603,-0.141323,-0.044322,-0.032236
1604,-0.083759,0.08594,-0.266182
1605,0.014613,0.080467,-0.317523
1606,0.342288,0.247006,-0.211365
1607,0.58017,0.394156,-0.075581
1608,0.613182,0.434605,0.030245
1609,-0.259182,0.318579,-0.344395
1610,-0.315304,0.001745,-0.291682
1611,-0.23715,-0.111915,-0.179033
1612,0.067766,0.063795,-0.155293
1613,0.202349,0.411909,0.17693
1614,0.053069,0.831305,0.482412
1615,-0.686937,0.540065,0.63138
1616,-0.568742,0.259919,0.52851
1617,-0.613004,0.412797,0.444734
1618,-0.467533,0.50825,0.120176
1619,-0.152285,0.375629,0.344101
1620,0.06151,0.325122,0.65693
1621,0.149955,0.085061,0.677214
1622,0.104588,-0.361852,0.645458
1623,0.108333,-0.414826,0.588169
1624,0.144386,-0.441172,0.487108
1625,0.130042,-0.570778,0.643593
1626,0.234481,-0.574432,0.702461
1627,0.271349,-0.472541,0.550065
1628,0.147108,-0.329999,0.359845
1629,0.135154,-0.364809,0.296709
1630,0.064234,-0.439427,-0.031238
1631,-0.072317,-0.151039,-0.389405
1632,-0.200294,0.487213,-0.663933
1633,-0.603358,1.709764,-0.589315
1634,-0.657577,0.563835,-0.626282
1635,-0.310061,-0.451435,-0.814707
1636,0.425957,-0.725888,-0.055459
1637,0.54096,-0.11038,0.595622
1638,0.332043,0.902359,1.517583
1639,-1.292685,1.148372,0.293271
1640,0.627386,-1.18756,1.198
1641,-0.043486,-0.117752,-0.188824
1642,0.469696,1.119674,0.593457
1643,0.170567,1.248763,0.763338
1644,-0.019331,0.668008,0.702814
1645,-0.034569,-0.289768,0.254319
1646,-0.054916,-0.259712,0.265117
1647,-0.033432,-0.225421,0.326171
1648,0.095709,-0.217445,0.374219
1649,0.182413,-0.294399,0.390146
1650,0.1797,-0.222715,0.230874
1651,0.217712,-0.042478,0.048562
1652,0.23793,0.021571,-0.189894
1653,0.198911,-0.045809,-0.216487
1654,-0.115265,-0.24108,-0.009906
1655,-0.18601,-0.091349,-0.047246
1656,-0.201639,0.014546,-0.149089
1657,0.13121,-0.016461,-0.409876
1658,0.520717,0.318341,-0.208465
1659,0.513013,0.356118,-0.046238
1660,-0.124721,0.282654,-0.106197
1661,-0.361748,0.1267,-0.361578
1662,-0.215651,0.022799,-0.127133
1663,0.027306,0.228403,0.196867
1664,-0.070774,0.615876,0.198254
1665,-0.579291,0.65498,0.417372
1666,-0.621295,0.24744,0.466065
1667,-0.429785,0.398977,0.64425
1668,-0.186944,0.586932,0.384461
1669,-0.265467,0.683315,0.321319
1670,-0.211268,0.457249,0.594321
1671,-0.112451,0.35701,0.76425
1672,0.034487,0.112686,0.601689
1673,0.00786,-0.162539,0.597717
1674,-0.00493,-0.267851,0.621517
1675,0.030443,-0.54296,0.514877
1676,0.084399,-0.52385,0.604586
1677,0.20783,-0.517531,0.676627
1678,0.221181,-0.502427,0.58461
1679,0.146254,-0.388579,0.485987
1680,0.109098,-0.343497,0.385187
1681,0.077443,-0.441202,0.291122
1682,-0.004961,-0.426511,0.059784
1683,-0.137814,-0.126504,-0.303355
1684,-0.34311,0.712819,-0.612072
1685,-1.00973,2.000049,-0.530375
1686,-0.789263,0.226649,-0.738263
1687,0.186717,-1.153632,-0.518103
1688,0.529924,-0.617206,0.027668
1689,0.438581,0.09274,0.386688
1690,-0.849968,2.398783,0.75099
1691,-0.392512,-0.800584,1.077819
1692,0.358606,-1.746991,1.503643
1693,-0.099476,0.268423,-0.185711
1694,0.635916,1.379824,0.492298
1695,0.516772,1.30339,0.76335
1696,-0.12702,0.019761,0.511004
1697,-0.183571,-0.289059,0.29908
1698,-0.157993,-0.190929,0.219712
1699,-0.097461,0.009508,0.373261
1700,-0.059968,-0.13113,0.312065
1701,0.024268,-0.203035,0.296332
1702,0.081127,-0.185636,0.2443
1703,0.128544,-0.179671,0.108703
1704,0.163718,-0.147322,0.059729
1705,0.188527,-0.120167,-0.074586
1706,0.009814,-0.254794,-0.051116
1707,-0.107979,-0.306265,0.05323
1708,-0.204005,-0.029939,-0.057706
1709,-0.181415,0.056287,-0.186133
1710,0.05552,0.05344,-0.30215
1711,0.263824,0.248232,-0.10793
1712,0.211831,0.279352,0.029492
1713,-0.040476,0.320201,-0.085974
1714,-0.247652,0.102031,-0.41229
1715,-0.106708,0.032054,-0.164305
1716,-0.024167,0.111267,-0.097903
1717,0.064509,0.33808,0.109488
1718,-0.317147,0.768466,0.386136
1719,-0.607011,0.339452,0.471156
1720,-0.56447,0.315269,0.510856
1721,-0.359211,0.361403,0.506917
1722,-0.387979,0.597508,0.276228
1723,-0.364188,0.507336,0.407734
1724,-0.148206,0.300214,0.653481
1725,0.00461,0.135082,0.609597
1726,-0.012146,-0.046089,0.57505
1727,0.025026,-0.177385,0.587119
1728,-0.00206,-0.323207,0.491731
1729,0.007511,-0.523946,0.548845
1730,0.017933,-0.500705,0.623968
1731,0.179712,-0.449299,0.612556
1732,0.173813,-0.460834,0.532497
1733,0.127347,-0.368613,0.428621
1734,0.125502,-0.402875,0.37882
1735,-0.059942,-0.371139,0.021367
1736,-0.263797,-0.038849,-0.371335
1737,-0.293575,0.989576,-0.873675
1738,-0.830861,1.429723,-0.63998
1739,-0.67952,0.042121,-0.632316
1740,-0.306078,-0.614969,-0.421482
1741,0.190514,-0.44813,0.027711
1742,0.065396,0.301476,0.060319
1743,-0.316814,1.636889,1.147961
1744,-0.723258,-0.056156,0.953687
1745,0.275855,-0.70061,0.930788
1746,-0.05509,-0.284013,0.336398
1747,0.558769,1.103537,0.534386
1748,0.306985,0.852705,0.688903
1749,0.091326,0.43053,0.558049
1750,-0.119261,-0.05621,0.266627
1751,-0.11893,-0.073863,0.307185
1752,-0.151051,-0.021236,0.306715
1753,-0.153501,-0.119254,0.299294
1754,0.017089,-0.253154,0.296495
1755,0.060439,-0.24147,0.300983
1756,0.167501,-0.09027,0.282642
1757,0.152126,-0.079728,0.161361
1758,0.114833,-0.140073,0.063752
1759,0.046783,-0.19917,-0.068335
1760,-0.018484,-0.217508,-0.084344
1761,-0.051968,-0.173275,-0.102221
1762,-0.115289,0.037818,-0.150156
1763,-0.049769,0.164014,-0.271984
1764,0.008337,0.170637,-0.33328
1765,0.229828,0.299462,-0.314222
1766,0.149595,0.398971,-0.062916
1767,-0.250048,0.36548,-0.298516
1768,-0.165498,0.094911,-0.063699
1769,0.077744,0.143325,0.010589
1770,0.039967,0.333693,0.050452
1771,-0.076892,0.55181,0.154693
1772,-0.511478,0.382969,0.470761
1773,-0.477081,0.447257,0.526397
1774,-0.369957,0.457619,0.582043
1775,-0.420823,0.584375,0.319302
1776,-0.438694,0.429391,0.475077
1777,-0.321669,0.492468,0.622276
1778,-0.004423,0.092172,0.597023
1779,0.009817,0.136013,0.660191
1780,-0.056643,-0.462847,0.557932
1781,0.112627,-0.642653,0.548358
1782,0.195829,-0.638289,0.570003
1783,0.151825,-0.531772,0.638732
1784,0.187792,-0.485637,0.578716
1785,0.195547,-0.478929,0.555977
1786,0.111179,-0.408061,0.387421
1787,0.027475,-0.455603,0.190321
1788,-0.029011,-0.423943,0.029181
1789,-0.360575,0.938352,-0.657743
1790,-0.566144,1.53388,-0.768093
1791,-0.895181,1.584148,-0.753899
1792,0.06425,-0.990245,-0.486243
1793,0.242284,-0.793599,-0.245695
1794,0.316744,-0.349107,-0.083972
1795,-0.097401,1.841047,0.619928
1796,-0.794836,0.987479,1.020835
1797,0.490364,-1.530043,1.473827
1798,-0.28371,-0.063276,-0.092102
1799,0.470859,1.205326,0.581766
1800,0.484536,1.238304,0.697494
1801,-0.032898,0.107038,0.688877
1802,-0.126818,-0.139408,0.365568
1803,-0.129357,-0.16465,0.237733
1804,-0.026076,0.079754,0.379291
1805,-0.011804,-0.161412,0.315702
1806,-0.01923,-0.302981,0.211792
1807,-0.023004,-0.212107,0.235372
1808,0.040666,-0.186319,0.116506
1809,0.10587,-0.204015,0.069081
1810,0.238229,-0.016806,-0.01572
1811,0.02734,-0.215348,-0.006338
1812,-0.050502,-0.258704,0.045999
1813,-0.190508,-0.164115,0.059379
1814,-0.079645,0.151625,-0.29522
1815,-0.073463,0.154648,-0.320197
1816,0.151041,0.179862,-0.378333
1817,0.419607,0.345898,-0.009961
1818,0.278083,0.46038,0.005638
1819,-0.267286,0.326485,-0.339272
1820,-0.126775,-0.127957,-0.117776
1821,-0.002528,-0.070326,-0.025343
1822,0.115571,0.008658,0.046423
1823,-0.406564,0.831782,0.501247
1824,-0.410523,0.837693,0.568068
1825,-0.516585,0.325164,0.639899
1826,-0.42881,0.578515,0.484534
1827,-0.462526,0.653907,0.379932
1828,-0.263249,0.4386,0.556913
1829,-0.061481,0.327574,0.641985
1830,0.049527,0.26052,0.653196
1831,0.012347,-0.120511,0.625342
1832,-0.038632,-0.331367,0.570008
1833,0.073959,-0.409457,0.548854
1834,0.076165,-0.605646,0.647873
1835,0.126465,-0.440392,0.6981
1836,0.165783,-0.447241,0.6687
1837,0.155132,-0.359435,0.517653
1838,0.126508,-0.37718,0.438194
1839,0.106557,-0.46603,0.359486
1840,-0.070767,-0.346251,-0.125177
1841,-0.222282,0.114146,-0.428925
1842,-0.296832,0.68328,-0.680908
1843,-0.912278,1.450091,-0.353243
1844,-0.293577,-0.520575,-0.768224
1845,0.051106,-0.999852,-0.725237
1846,0.134928,-0.216868,0.073861
1847,-0.050697,0.912275,0.243934
1848,-0.271304,1.759868,0.800149
1849,-0.182667,-1.170115,1.185297
1850,0.022358,-0.757827,0.930094
1851,-0.362582,-0.130466,-0.201604
1852,0.615825,1.35038,0.603457
1853,0.196471,0.647979,0.848942
1854,-0.000397,0.190757,0.633639
1855,-0.156635,-0.135455,0.324796
1856,-0.084608,-0.008342,0.339194
1857,-0.120149,-0.022671,0.384105
1858,-0.057844,-0.178468,0.36797
1859,-0.08433,-0.28357,0.323711
1860,-0.032921,-0.278376,0.292353
1861,0.123,-0.1659,0.232683
1862,0.128147,-0.114241,0.045057
1863,0.115734,-0.128518,-0.051927
1864,0.117514,-0.111255,-0.116438
1865,-0.103194,-0.19362,-0.016834
1866,-0.14861,-0.111481,-0.05016
1867,-0.135712,0.085825,-0.114117
1868,0.154067,0.202588,-0.267168
1869,0.156982,0.203839,-0.276086
1870,0.339491,0.36973,-0.022685
1871,-0.351382,0.322734,-0.266746
1872,-0.379764,0.126822,-0.374189
1873,0.035042,0.119127,-0.078341
1874,0.201313,0.159461,0.045158
1875,-0.057512,0.652027,0.139374
1876,-0.540297,0.432745,0.384745
1877,-0.552024,0.427215,0.455101
1878,-0.511881,0.396412,0.5423
1879,-0.335776,0.544833,0.352139
1880,-0.332509,0.492933,0.421479
1881,-0.314523,0.486233,0.53578
1882,-0.018648,0.334582,0.735543
1883,0.0395,0.043597,0.603383
1884,0.010193,-0.069255,0.610977
1885,-0.111318,-0.311969,0.492186
1886,0.041208,-0.440109,0.606427
1887,0.133823,-0.472844,0.630173
1888,0.198359,-0.418423,0.654874
1889,0.176523,-0.38513,0.586622
1890,0.198491,-0.486921,0.542185
1891,0.086018,-0.321361,0.419936
1892,0.077415,-0.452363,0.340702
1893,0.04744,-0.487237,0.184815
1894,-0.201353,-0.09263,-0.246165
1895,-0.304753,0.894569,-0.586022
1896,-0.443584,1.712466,-0.584715
1897,-0.552454,0.005934,-0.731652
1898,0.155679,-1.162819,-0.495178
1899,0.362724,-0.222157,0.064126
1900,0.13083,1.149879,0.430946
1901,-0.710437,1.99253,0.885077
1902,-0.762783,0.211395,0.836997
1903,-0.017701,-0.677919,0.803378
1904,0.225399,0.753413,0.175599
1905,0.620805,1.312414,0.704773
1906,0.134965,0.52252,0.873023
1907,-0.130937,-0.12018,0.489092
1908,-0.14721,-0.169502,0.310403
1909,0.025873,0.173962,0.309664
1910,0.090147,0.109572,0.390039
1911,0.088424,-0.20214,0.305151
1912,0.020239,-0.343007,0.267378
1913,0.029411,-0.254545,0.222083
1914,0.077227,-0.193671,0.18551
1915,0.141552,-0.003849,0.163677
1916,0.146056,-0.089321,0.05811
1917,0.11505,-0.142622,-0.007233
1918,0.053603,-0.090703,-0.034613
1919,-0.069368,0.032075,-0.049776
1920,-0.076053,0.132634,-0.076656
1921,0.039566,0.128454,-0.259677
1922,0.17698,0.164419,-0.290227
1923,0.414274,0.33188,-0.098954
1924,-0.08667,0.387941,-0.040457
1925,-0.276706,0.148231,-0.298084
1926,-0.17043,-0.045896,-0.263588
1927,0.24239,0.03759,-0.090932
1928,0.327975,0.092397,0.031824
1929,0.267533,0.540048,0.194882
1930,-0.406775,0.397682,0.485933
1931,-0.441743,0.265519,0.423793
1932,-0.42964,0.314529,0.554582
1933,-0.331273,0.412198,0.346879
1934,-0.410335,0.479591,0.423023
1935,-0.273206,0.467696,0.556546
1936,0.140098,0.367641,0.677266
1937,0.188464,0.148082,0.5903
1938,0.161776,0.06774,0.530415
1939,-0.071991,-0.109448,0.514487
1940,0.042485,-0.259818,0.588409
1941,0.120426,-0.301289,0.596939
1942,0.123763,-0.483287,0.514472
1943,0.146383,-0.443813,0.516428
1944,0.194836,-0.446384,0.521765
1945,0.204105,-0.298322,0.464137
1946,0.173178,-0.413783,0.356907
1947,0.125235,-0.437448,0.23988
1948,-0.089997,-0.170391,-0.111096
1949,-0.19255,0.655864,-0.607699
1950,-0.104395,1.35748,-0.768547
1951,-0.461392,0.505664,-0.587711
1952,0.01584,-0.745091,-0.547608
1953,0.272035,-0.670663,-0.372344
1954,0.370388,0.633028,0.218454
1955,-0.336844,2.044679,0.988885
1956,-0.713668,0.813381,1.008384
1957,-0.163469,-0.615969,0.833513
1958,0.259491,0.619039,0.11936
1959,0.767021,1.334391,0.690637
1960,0.264704,0.811593,0.902544
1961,-0.025903,0.119883,0.556299
1962,-0.076339,0.003362,0.267817
1963,0.045401,0.082657,0.375542
1964,0.037927,-0.093221,0.349443
1965,0.053125,-0.225169,0.277313
1966,0.176216,-0.274532,0.29302
1967,0.155714,-0.201611,0.180253
1968,0.166619,-0.170779,0.122432
1969,0.238293,-0.099846,0.024084
1970,0.265112,-0.147824,-0.035531
1971,0.261716,-0.151343,-0.061539
1972,0.05231,-0.128693,0.16076
1973,-0.058522,0.020342,0.012094
1974,-0.049238,0.107053,-0.185477
1975,0.196088,0.171422,-0.38867
1976,0.309499,0.287294,-0.282772
1977,0.491637,0.420111,-0.040909
1978,0.150049,0.535409,-0.13879
1979,-0.154011,0.046107,-0.29526
1980,-0.060389,-0.021736,-0.10964
1981,0.262225,0.091769,0.167179
1982,0.060446,0.674874,0.258
1983,-0.163484,0.875068,0.461697
1984,-0.436161,0.387975,0.510215
1985,-0.363606,0.436309,0.65248
1986,-0.263566,0.600556,0.654233
1987,-0.292102,0.704519,0.411853
1988,-0.117075,0.439489,0.671875
1989,-0.001486,0.416168,0.76079
1990,0.309711,0.162367,0.633013
1991,0.08842,-0.197614,0.5492
1992,0.082938,-0.338694,0.607215
1993,0.081748,-0.419964,0.637569
1994,0.134901,-0.508575,0.680927
1995,0.18826,-0.546528,0.687487
1996,0.306449,-0.427302,0.605731
1997,0.209459,-0.362157,0.491703
1998,0.167941,-0.384289,0.36635
1999,0.108036,-0.457502,0.183726
2000,0.059149,-0.236237,-0.141364
2001,-0.086692,-0.062141,-0.216516
2002,-0.414879,1.426744,-0.47181
2003,-0.667412,1.320024,-0.611166
2004,-0.325392,0.491068,-0.787576
2005,0.460514,-0.725981,-0.48421
2006,0.666569,-0.218265,0.157806
2007,0.715223,0.149458,0.449851
2008,-0.474847,2.199294,0.649372
2009,-0.065683,-1.502324,1.441496
2010,-0.071283,-1.511521,1.43445
2011,0.115179,0.320175,0.094633
2012,0.53687,1.336009,0.733761
2013,0.273962,1.004989,0.725954
2014,0.108613,0.256342,0.492666
2015,0.031156,-0.163237,0.290473
2016,-0.03766,-0.244412,0.284158
2017,-0.081934,-0.189463,0.269747
2018,-0.021431,-0.128909,0.255355
2019,0.224702,-0.097263,0.352047
2020,0.273099,-0.100838,0.322157
2021,0.247562,-0.158265,0.082488
2022,0.23334,-0.175502,-0.013379
2023,0.240984,-0.153151,-0.147873
2024,0.087955,-0.175677,0.040971
2025,0.024139,-0.208899,0.072935
2026,-0.020749,0.055728,-0.146064
2027,0.169502,0.128287,-0.259619
2028,0.276364,0.221269,-0.24722
2029,0.399575,0.384055,-0.041276
2030,0.054531,0.424241,-0.028737
2031,-0.200653,0.203058,-0.329131
2032,-0.134044,0.113724,-0.116588
2033,0.087262,0.107545,0.086828
2034,0.044174,0.403866,0.121243
2035,-0.359159,0.659799,0.428459
2036,-0.501129,0.483526,0.538865
2037,-0.522997,0.627081,0.628993
2038,-0.320434,0.516967,0.386334
2039,-0.370018,0.663081,0.316259
2040,-0.323445,0.575088,0.44701
2041,-0.014821,0.381018,0.747294
2042,0.178955,0.216352,0.627717
2043,0.160296,0.109178,0.625168
2044,0.045578,-0.272314,0.589955
2045,0.056318,-0.426104,0.584282
2046,0.143511,-0.542067,0.585964
2047,0.288764,-0.549418,0.674676
2048,0.281443,-0.410723,0.597575
2049,0.290028,-0.413424,0.589255
2050,0.222302,-0.364604,0.346128
2051,0.166782,-0.480003,0.156159
2052,0.15664,-0.512994,0.126072
2053,-0.073816,0.397288,-0.615864
2054,-0.573788,1.779223,-0.610145
2055,-0.561363,1.787229,-0.608211
2056,-0.558628,-0.164265,-0.750024
2057,0.309092,-0.367285,-0.058988
2058,0.177179,0.22763,0.082205
2059,-0.314664,1.600905,1.139702
2060,0.257185,-1.384745,1.321447
2061,0.248327,-1.399126,1.312606
2062,0.405177,1.276268,0.538167
2063,0.490343,1.357809,0.658377
2064,0.228548,0.759109,0.794759
2065,0.011282,0.019676,0.49144
2066,0.036543,0.036224,0.325065
2067,0.016382,0.10344,0.331641
2068,-0.052478,-0.019971,0.360707
2069,0.024477,-0.342807,0.249691
2070,0.085163,-0.348183,0.253226
2071,0.203331,-0.179702,0.217897
2072,0.276426,-0.184708,0.113116
2073,0.297206,-0.132739,0.079227
2074,0.256253,-0.102113,-0.124356
2075,0.129269,-0.212416,-0.082066
2076,0.098738,-0.222038,-0.009317
2077,-0.02616,0.031583,-0.067996
2078,0.018179,0.062724,-0.294769
2079,0.247824,0.153416,-0.34358
2080,0.578002,0.415331,-0.096745
2081,0.539285,0.503696,0.046763
2082,-0.110288,0.489881,-0.13256
2083,-0.264421,-0.021815,0.002764
2084,-0.078666,0.040994,0.148973
2085,-0.022111,0.544435,0.167839
2086,-0.324635,0.756516,0.469687
2087,-0.458999,0.611991,0.552609
2088,-0.278813,0.535183,0.652013
2089,-0.281475,0.606965,0.416665
2090,-0.320096,0.658449,0.428196
2091,-0.246478,0.580914,0.549812
2092,0.013392,0.43866,0.775034
2093,0.147596,0.394023,0.774938
2094,0.169162,0.136971,0.675168
2095,-0.038259,-0.323061,0.635974
2096,0.044435,-0.55718,0.693831
2097,0.159094,-0.617408,0.671412
2098,0.233931,-0.563629,0.691046
2099,0.36027,-0.44568,0.679991
2100,0.295442,-0.434071,0.564372
2101,0.21228,-0.432795,0.419179
2102,0.11487,-0.546146,0.224873
2103,-0.034645,-0.348748,-0.076097
2104,-0.229113,0.577029,-0.423933
2105,-0.229446,1.481731,-0.578593
2106,-0.585762,2.213655,-0.600297
2107,-0.329323,-0.387428,-0.927927
2108,0.456778,-1.103188,-0.407389
2109,0.557214,-0.61462,-0.11174
2110,-0.2349,2.627171,1.340415
2111,-0.758376,-0.275636,1.381395
2112,-0.753926,-0.263222,1.39222
2113,-0.243703,-0.429291,-0.074638
2114,0.491268,1.142195,0.497896
2115,0.476818,1.355351,0.775092
2116,0.050434,0.442647,0.756232
2117,-0.058516,0.007304,0.391916
2118,-0.006177,-0.08347,0.253269
2119,0.029662,-0.019051,0.269608
2120,0.050767,-0.164073,0.316481
2121,0.067171,-0.353719,0.268285
2122,0.138658,-0.211529,0.284714
2123,0.214055,-0.141663,0.183493
2124,0.225107,-0.170325,0.119923
2125,0.24008,-0.157739,0.005418
2126,0.206461,-0.202156,-0.050633
2127,0.114173,-0.242672,-0.02407
2128,-0.054691,-0.233731,0.025511
2129,-0.083856,-0.004428,-0.1649
2130,0.006142,0.023104,-0.252982
2131,0.370931,0.276101,-0.228374
2132,0.358533,0.590765,0.090768
2133,-0.041732,0.496067,-0.074023
2134,-0.146189,0.080304,-0.187069
2135,0.03817,0.164462,0.002678
2136,0.178798,0.167579,0.072051
2137,-0.111262,0.516685,0.239396
2138,-0.354931,0.602281,0.400377
2139,-0.514804,0.455686,0.591452
2140,-0.344654,0.479384,0.585129
2141,-0.34475,0.527351,0.335721
2142,-0.383916,0.610426,0.341936
2143,-0.271603,0.318066,0.689843
2144,0.014478,0.37865,0.755693
2145,0.098656,0.334127,0.680339
2146,0.04016,0.015531,0.592642
2147,-0.00302,-0.068743,0.646779
2148,0.004609,-0.140748,0.615233
2149,0.207484,-0.513003,0.615503
2150,0.268773,-0.522999,0.61437
2151,0.271656,-0.415013,0.513383
2152,0.127507,-0.352396,0.526166
2153,0.216731,-0.42358,0.436985
2154,0.258285,-0.483022,0.354133
2155,0.13043,-0.446358,0.008414
2156,-0.074098,0.051146,-0.276772
2157,-0.169053,0.521498,-0.38107
2158,-0.882549,1.632464,-0.706441
2159,-0.362079,-0.471891,-0.872987
2160,0.338279,-0.862309,-0.40655
2161,0.324682,-0.057393,0.252141
2162,-0.055226,1.39516,0.653258
2163,-0.838291,1.708364,0.62116
2164,0.465601,-1.474073,1.593826
2165,-0.046746,0.547134,-0.131876
2166,0.396267,1.210674,0.455582
2167,0.428421,1.453483,0.794201
2168,-0.011193,0.078348,0.622469
2169,-0.043019,-0.045498,0.404429
2170,-0.027858,-0.087204,0.275833
2171,-0.01368,0.029808,0.32539
2172,-0.005824,-0.046573,0.263098
2173,0.093348,-0.310098,0.234083
2174,0.176122,-0.245732,0.318198
2175,0.167786,-0.230602,0.261872
2176,0.127396,-0.233805,0.06364
2177,0.11752,-0.20874,-0.041697
2178,0.133537,-0.193315,-0.089526
2179,0.073408,-0.220293,-0.008547
2180,-0.035775,-0.080257,0.010084
2181,-0.045292,0.029853,-0.056023
2182,0.219637,0.225553,-0.224796
2183,0.420856,0.32852,-0.216674
2184,0.554345,0.405402,-0.067936
2185,-0.120005,0.466793,-0.266246
2186,-0.165691,0.195477,-0.204778
2187,-0.066229,0.161672,0.046017
2188,0.150935,0.314043,0.143107
2189,-0.386973,0.641437,0.316205
2190,-0.557456,0.508864,0.546194
2191,-0.469502,0.543382,0.589918
2192,-0.27241,0.666959,0.607935
2193,-0.388665,0.774195,0.478061
2194,-0.476215,0.651193,0.482625
2195,-0.152461,0.422923,0.727871
2196,0.132778,0.300845,0.669919
2197,0.135029,0.017732,0.683962
2198,0.064601,-0.303709,0.688068
2199,0.119732,-0.517626,0.62546
2200,0.193962,-0.62319,0.7289
2201,0.207213,-0.569592,0.784052
2202,0.256834,-0.468962,0.695871
2203,0.244891,-0.429452,0.587921
2204,0.154696,-0.307035,0.457444
2205,0.146687,-0.392433,0.325931
2206,0.088881,-0.44654,0.07533
2207,-0.082758,-0.132452,-0.312374
2208,-0.244505,0.734725,-0.676033
2209,-0.883795,2.010814,-0.557342
2210,-0.27382,-0.48147,-0.787023
2211,-0.267329,-0.45365,-0.759757
2212,0.192487,-0.009869,0.011957
2213,0.002624,1.862832,0.874604
2214,-0.201717,1.193542,1.448691
2215,0.162876,-1.6122,1.786897
2216,-0.309542,0.924927,-0.068627
2217,0.479209,1.339182,0.386841
2218,0.597589,1.137191,0.74319
2219,0.086966,0.021717,0.570055
2220,0.020684,-0.036126,0.401173
2221,-0.00357,0.060499,0.360186
2222,-0.013012,0.022169,0.360058
2223,0.02957,-0.141201,0.38425
2224,0.072774,-0.357391,0.326001
2225,0.115432,-0.359953,0.323682
2226,0.161881,-0.241915,0.255928
2227,0.156822,-0.173401,0.149363
2228,0.167799,-0.164551,0.092177
2229,0.186965,-0.16424,0.031448
2230,-0.094885,-0.141416,0.148125
2231,-0.128301,-0.128728,0.067848
2232,-0.139175,0.000652,-0.04637
2233,0.003611,0.170963,-0.400027
2234,0.226409,0.319305,-0.284857
2235,0.299476,0.397401,-0.184164
2236,0.197156,0.356981,-0.050989
2237,-0.139491,0.220734,-0.203702
2238,-0.183543,0.096711,-0.144407
2239,0.115493,0.160862,0.173624
2240,0.084,0.453495,0.174383
2241,-0.102541,0.603035,0.306608
2242,-0.506322,0.275447,0.563872
2243,-0.492343,0.455343,0.599359
2244,-0.386513,0.467349,0.657996
2245,-0.397121,0.652073,0.441491
2246,-0.148898,0.460698,0.712276
2247,-0.113825,0.492687,0.755993
2248,0.214246,0.31256,0.64099
2249,0.094967,-0.015069,0.639726
2250,-0.007288,-0.227528,0.628813
2251,0.036762,-0.399381,0.662745
2252,0.164293,-0.50774,0.63023
2253,0.170082,-0.490175,0.67821
2254,0.198607,-0.423379,0.603702
2255,0.204783,-0.439764,0.560375
2256,0.158337,-0.321919,0.492041
2257,0.18679,-0.375855,0.400163
2258,0.073491,-0.327918,-0.008893
2259,-0.033567,-0.119778,-0.235687
2260,-0.44703,0.522721,-0.53868
2261,-0.883562,1.421991,-0.517436
2262,-0.560053,0.699683,-0.490014
2263,0.210117,-0.613756,-0.783562
2264,0.458807,-0.273614,-0.037551
2265,0.418733,0.050015,0.150025
2266,-0.529947,2.536992,1.240674
2267,-0.515528,-0.821812,1.271434
2268,0.266141,-1.771045,1.562267
2269,-0.031317,0.472082,-0.161786
2270,0.577874,1.237352,0.39409
2271,0.594369,1.457564,0.868245
2272,-0.002183,0.039766,0.573479
2273,-0.086537,-0.10903,0.266472
2274,-0.103232,-0.127092,0.224489
2275,-0.119666,-0.002443,0.304406
2276,-0.012984,-0.212037,0.327975
2277,0.111435,-0.311119,0.364533
2278,0.209772,-0.188761,0.335948
2279,0.187406,-0.192971,0.215868
2280,0.161479,-0.198641,0.039102
2281,0.100046,-0.180598,-0.011806
2282,0.042329,-0.190997,0.021767
2283,-0.048254,-0.244033,0.093428
2284,-0.122375,-0.0107,-0.050699
2285,0.068083,0.141869,-0.159415
2286,0.14529,0.226084,-0.182527
2287,0.333136,0.338163,-0.131344
2288,0.320572,0.36634,0.003379
2289,-0.119835,0.420116,-0.050352
2290,-0.27689,-0.078495,-0.286022
2291,-0.190129,-0.254746,-0.219917
2292,-0.101399,-0.245648,-0.184009
2293,0.171184,0.428796,0.284001
2294,0.117448,1.004948,0.560392
2295,-0.286142,1.069932,0.990303
2296,-0.541444,0.382557,0.607861
2297,-0.44683,0.552084,0.548104
2298,-0.418746,0.718152,0.358351
2299,-0.251448,0.641292,0.343684
2300,-0.017443,0.473878,0.734675
2301,0.101082,0.36942,0.776991
2302,0.185441,-0.101419,0.656331
2303,0.165457,-0.271585,0.727279
2304,0.195686,-0.520436,0.666782
2305,0.010957,-0.56847,0.792514
2306,0.162303,-0.588172,0.841253
2307,0.280783,-0.541412,0.745607
2308,0.211679,-0.374661,0.615586
2309,0.188205,-0.336825,0.44281
2310,0.165963,-0.492563,0.185945
2311,0.005985,-0.27583,-0.256014
2312,-0.375158,0.198876,-0.596819
2313,-0.477799,1.610524,-0.706466
2314,-0.730827,1.504139,-0.323627
2315,0.102822,-0.993057,-0.784562
2316,0.113292,-0.971488,-0.766344
2317,0.141691,0.630769,0.133215
2318,-0.265733,2.336654,1.498261
2319,-0.280194,2.343904,1.516807
2320,-0.02539,-0.715163,0.98058
2321,0.032485,0.566148,0.0796
2322,0.529688,1.156186,0.499149
2323,0.55972,1.247629,0.786199
2324,0.006072,0.11411,0.599295
2325,-0.111959,-0.08143,0.437681
2326,-0.160001,-0.180847,0.324211
2327,-0.126621,-0.104528,0.353332
2328,-0.09466,-0.144463,0.329326
2329,0.165297,-0.148009,0.357412
2330,0.174809,-0.14789,0.257958
2331,0.158501,-0.163227,0.133905
2332,0.18923,-0.156692,0.020019
2333,0.153487,-0.160183,0.043497
2334,0.080336,-0.149924,0.082723
2335,-0.159056,-0.297497,0.144914
2336,-0.184298,-0.26526,0.059977
2337,-0.182979,-0.01704,-0.113878
2338,0.200074,0.129991,-0.186054
2339,0.204672,0.131295,-0.202333
2340,0.311398,0.258737,-0.105274
2341,-0.019068,0.381768,-0.173362
2342,-0.150564,0.33472,-0.235306
2343,-0.023557,0.235547,0.054956
2344,0.136636,0.087782,0.163325
2345,-0.273881,0.620831,0.191177
2346,-0.597804,0.502207,0.408594
2347,-0.537216,0.712243,0.546006
2348,-0.262332,0.638188,0.555931
2349,-0.414358,0.66992,0.403344
2350,-0.509604,0.61322,0.517035
2351,-0.254,0.377362,0.858542
2352,0.075414,0.305372,0.780378
2353,0.058322,0.015908,0.533133
2354,-0.010443,-0.225387,0.572026
2355,-0.012104,-0.400116,0.559655
2356,0.110575,-0.437908,0.665487
2357,0.12532,-0.429321,0.746131
2358,0.123448,-0.352057,0.695834
2359,0.213559,-0.427891,0.598175
2360,0.167867,-0.252089,0.495375
2361,0.167332,-0.282007,0.427681
2362,0.095999,-0.44726,0.296187
2363,-0.034178,-0.2886,-0.118384
2364,-0.048387,-0.330941,-0.157912
2365,-0.370208,0.94688,-0.628636
2366,-1.052716,1.963799,-0.427658
2367,-0.557706,0.090588,-0.606161
2368,0.165496,-0.704447,-0.034938
2369,0.340924,-0.293742,0.294301
2370,0.341221,0.819123,0.489771
2371,-0.523977,2.321247,1.213062
2372,0.227765,-1.328995,1.309444
2373,-0.18408,-0.633246,0.508311
2374,0.396513,0.867937,0.266339
2375,0.427998,1.069822,0.844593
2376,0.211852,0.583863,0.811241
2377,-0.038545,0.043434,0.533648
2378,-0.14289,-0.118001,0.276036
2379,-0.162455,-0.165647,0.301781
2380,-0.132601,-0.295362,0.339542
2381,-0.054402,-0.372673,0.367608
2382,-0.017623,-0.286122,0.360453
2383,0.086635,-0.175273,0.169399
2384,0.107101,-0.160213,0.099426
2385,0.145567,-0.110935,0.055361
2386,0.033186,-0.123378,-0.033769
2387,-0.132668,-0.175264,-0.031767
2388,-0.249791,-0.124472,-0.078821
2389,0.085541,0.122167,-0.249745
2390,0.231382,0.195363,-0.257502
2391,0.36347,0.327598,-0.229202
2392,0.071262,0.440316,0.021238
2393,-0.370769,0.290312,-0.251549
2394,-0.307491,0.097725,-0.262313
2395,-0.007615,-0.018724,0.059374
2396,-0.050348,0.146743,0.142874
2397,-0.155343,0.541991,0.266928
2398,-0.470796,0.663644,0.720295
2399,-0.508197,0.497291,0.684846
2400,-0.338125,0.499432,0.611312
2401,-0.407423,0.814505,0.302416
2402,-0.355057,0.716664,0.531273
2403,-0.152779,0.419343,0.84457
2404,0.048762,0.190163,0.686079
2405,0.138226,-0.063613,0.640386
2406,0.033852,-0.370599,0.638505
2407,0.10154,-0.59147,0.604433
2408,0.016233,-0.582475,0.758156
2409,0.166996,-0.485393,0.856862
2410,0.242383,-0.501006,0.751752
2411,0.140511,-0.399089,0.610588
2412,0.044258,-0.422798,0.465888
2413,0.023223,-0.471275,0.330775
2414,-0.003742,-0.427956,0.030624
2415,-0.151016,-0.003782,-0.372541
2416,-0.371348,0.961334,-0.700738
2417,-0.942172,1.802021,-0.480028
2418,-0.547578,0.366327,-0.66497
2419,-0.306632,0.384756,-0.466879
2420,0.0156,1.758619,0.07991
2421,0.35772,1.681233,1.106641
2422,0.40817,-2.130571,2.35044
2423,-0.863643,0.733024,-0.308952
2424,-0.101247,1.357429,0.423173
2425,0.574236,1.159179,0.748729
2426,0.134011,-0.017611,0.618623
2427,-0.032105,-0.182622,0.401158
2428,-0.064108,-0.009926,0.335062
2429,-0.075741,0.036295,0.318442
2430,0.026107,-0.071276,0.464883
2431,0.011411,-0.186797,0.469321
2432,-0.058956,-0.247265,0.322779
2433,-0.043567,-0.241405,0.208038
2434,0.080742,-0.296388,0.039425
2435,0.126415,-0.165523,0.050729
2436,0.143357,-0.130243,0.092174
2437,0.026453,-0.106814,0.246571
2438,-0.14556,-0.146708,0.11785
2439,-0.181814,-0.176318,-0.016149
2440,-0.066831,0.113578,-0.240269
2441,0.117206,0.186257,-0.222276
2442,0.199115,0.265742,-0.116866
2443,0.100137,0.361172,0.056579
2444,-0.216692,0.327848,-0.014888
2445,-0.308046,0.241683,-0.142377
2446,-0.196312,-0.059507,-0.202235
2447,-0.008258,-0.057271,-0.13336
2448,0.056307,-0.004,-0.048998
2449,0.079297,0.476524,0.277407
2450,-0.25506,0.959836,0.806646
2451,-0.574665,0.436333,0.656103
2452,-0.432095,0.356407,0.572159
2453,-0.406679,0.748666,0.387867
2454,-0.394608,0.741439,0.243512
2455,-0.299565,0.463541,0.697385
2456,-0.050518,0.333651,0.803797
2457,0.020347,0.002364,0.757708
2458,-0.024016,-0.144866,0.742971
2459,0.094894,-0.236361,0.616301
2460,0.017355,-0.43451,0.608613
2461,0.020425,-0.521236,0.77968
2462,0.212005,-0.463611,0.680605
2463,0.164623,-0.390735,0.618932
2464,0.1321,-0.313946,0.556436
2465,0.103432,-0.425817,0.316968
2466,0.040831,-0.447723,0.157749
2467,-0.011072,-0.244828,-0.176337
2468,-0.21524,0.939633,-0.683104
2469,-0.448651,1.537811,-0.600205
2470,-0.661869,0.819086,-0.339074
2471,0.028776,-0.749235,-0.394083
2472,0.09774,-0.518903,-0.176837
2473,-0.344035,1.698578,0.714784
2474,-0.676149,2.51802,1.021138
2475,-0.716323,1.761888,0.548258
2476,0.467378,-1.538943,1.758795
2477,-0.133538,-0.602673,0.700005
2478,0.346131,1.149698,0.228478
2479,0.395876,1.0898,0.854434
2480,-0.011075,0.018613,0.543009
2481,-0.146819,-0.146593,0.402523
2482,-0.258898,-0.069807,0.329984
2483,-0.181824,0.012726,0.468903
2484,-0.123165,-0.056704,0.457915
2485,0.016025,-0.103584,0.546567
2486,0.075347,-0.152016,0.397685
2487,0.040795,-0.254588,0.144983
2488,0.038091,-0.318927,0.016165
2489,0.092414,-0.249165,0.068928
2490,0.0954,-0.177113,0.114581
2491,-0.017919,-0.146785,0.13995
2492,-0.14331,-0.079606,0.037594
2493,-0.182682,0.050831,-0.230626
2494,-0.002698,0.162057,-0.360412
2495,0.129881,0.187914,-0.255686
2496,0.211795,0.322061,-0.050589
2497,0.058226,0.377727,-0.038719
2498,-0.221889,0.217786,-0.195295
2499,-0.207385,0.086641,-0.085907
2500,0.041624,0.058968,0.157343
2501,0.073805,0.330816,0.134931
2502,-0.370298,0.656641,0.387748
2503,-0.649921,0.470687,0.495529
2504,-0.469196,0.483414,0.600222
2505,-0.430157,0.590835,0.586803
2506,-0.509124,0.676853,0.464499
2507,-0.29294,0.45418,0.729877
2508,-0.036267,0.488097,0.844438
2509,0.136632,0.215937,0.697219
2510,-0.141651,-0.296675,0.584789
2511,-0.151829,-0.329439,0.620574
2512,-0.111615,-0.362618,0.622296
2513,0.089741,-0.453368,0.668085
2514,0.156297,-0.465445,0.697849
2515,0.218117,-0.429931,0.68018
2516,0.153418,-0.408796,0.55588
2517,0.138843,-0.369068,0.500299
2518,0.050662,-0.450094,0.179284
2519,0.035544,-0.38147,-0.015614
2520,-0.055962,-0.183754,-0.229353
2521,-0.531836,1.228466,-0.632912
2522,-0.896502,1.709632,-0.54069
2523,-0.706966,0.61603,-0.485356
2524,0.042919,-0.639026,-0.310517
2525,0.075987,0.183825,0.232546
2526,-0.075948,1.561769,0.758913
2527,-0.564824,0.319576,1.301378
2528,0.000119,-1.099576,1.185226
2529,-0.308748,0.132794,0.001228
2530,0.669948,1.276711,0.518111
2531,0.543889,1.094426,0.795308
2532,0.011514,0.217728,0.740865
2533,-0.134306,-0.012034,0.408019
2534,-0.16824,0.046578,0.343673
2535,-0.124159,0.037812,0.385227
2536,-0.114052,-0.073727,0.412699
2537,-0.096325,-0.224209,0.417852
2538,-0.015851,-0.287757,0.399234
2539,0.094661,-0.220187,0.346441
2540,0.107764,-0.204278,0.234854
2541,0.069934,-0.190624,0.063521
2542,0.049969,-0.189946,0.000255
2543,-0.025766,-0.150501,0.079035
2544,-0.094965,-0.096156,0.099489
2545,-0.205281,-0.07905,0.015397
2546,-0.078541,0.165517,-0.340699
2547,0.00604,0.240991,-0.37989
2548,0.296565,0.361854,-0.036699
2549,0.022072,0.323514,0.005183
2550,-0.244527,0.299008,-0.167428
2551,-0.324973,0.108665,-0.277482
2552,0.104012,0.194096,0.110539
2553,0.120195,0.304861,0.084893
2554,-0.09276,0.652753,0.206839
2555,-0.570297,0.327634,0.48996
2556,-0.569696,0.358571,0.548135
2557,-0.384581,0.475476,0.66693
2558,-0.450266,0.788097,0.415845
2559,-0.444902,0.734431,0.46063
2560,-0.28451,0.429248,0.804847
2561,0.128469,0.288936,0.838933
2562,0.151797,0.33942,0.907481
2563,-0.067609,-0.272129,0.62372
2564,-0.026163,-0.397243,0.566666
2565,0.003117,-0.466637,0.591793
2566,0.018061,-0.507024,0.742544
2567,0.11115,-0.408326,0.68954
2568,0.107932,-0.414543,0.635772
2569,0.111688,-0.400862,0.57216
2570,0.15925,-0.403105,0.394017
2571,0.113702,-0.485297,0.302022
2572,-0.127772,-0.155401,-0.125996
2573,-0.283577,0.027766,-0.244892
2574,-0.720183,1.897107,-0.551593
2575,-0.620485,0.606117,-0.569445
2576,-0.021741,-0.872365,-0.541164
2577,0.217729,-0.431396,-0.029714
2578,0.260068,0.256817,0.273088
2579,0.220913,0.982774,0.621997
2580,-0.764436,2.583026,0.88565
2581,0.405307,-1.442344,1.533308
2582,-0.268116,-0.003979,-0.077965
2583,0.280554,0.87872,0.254844
2584,0.424966,1.320723,0.97066
2585,0.069813,0.673918,0.911095
2586,-0.203185,-0.173744,0.31551
2587,-0.150276,-0.113203,0.277188
2588,-0.096871,0.030687,0.399465
2589,-0.077372,-0.037784,0.384686
2590,0.047905,-0.212408,0.435653
2591,0.081357,-0.212048,0.370194
2592,0.090566,-0.239417,0.284984
2593,0.104087,-0.272231,0.115568
2594,0.095467,-0.17229,0.064382
2595,0.072994,-0.138314,0.041097
2596,-0.089884,-0.16385,0.141925
2597,-0.170142,-0.181462,0.084087
2598,-0.143682,-0.075271,-0.008416
2599,-0.046356,0.183224,-0.237482
2600,0.069731,0.273201,-0.297244
2601,0.231021,0.349475,-0.111305
2602,0.046529,0.343885,0.005748
2603,-0.220606,0.291611,-0.184795
2604,-0.150928,0.001373,-0.152996
2605,0.035356,0.042414,0.05646
2606,0.070146,0.468738,0.109727
2607,-0.137828,0.731438,0.284389
2608,-0.465501,0.508329,0.557193
2609,-0.455201,0.350703,0.581805
2610,-0.309668,0.369063,0.640506
2611,-0.327714,0.61601,0.520231
2612,-0.34334,0.530735,0.65105
2613,-0.25393,0.478089,0.813761
2614,0.033168,0.422193,0.836511
2615,0.009911,0.020201,0.579915
2616,-0.08574,-0.175932,0.547009
2617,-0.038169,-0.371929,0.59153
2618,0.018184,-0.419007,0.615802
2619,0.029351,-0.499647,0.748978
2620,0.113348,-0.4021,0.687912
2621,0.132356,-0.395103,0.661
2622,0.145015,-0.342333,0.590722
2623,0.151917,-0.428171,0.470439
2624,0.021257,-0.389598,0.213015
2625,-0.161896,-0.03422,-0.135614
2626,-0.438775,0.670747,-0.523929
2627,-0.771557,1.741003,-0.508859
2628,-0.508925,0.458048,-0.588922
2629,0.151279,-0.87998,-0.671749
2630,0.361913,-0.479534,0.008883
2631,0.350663,0.060423,0.183617
2632,-0.087646,1.816121,1.062871
2633,-1.175292,1.164479,0.795216
2634,-0.384916,-0.734114,1.476351
2635,-0.194308,-0.159751,-0.108989
2636,0.70568,1.264137,0.459803
2637,0.771294,1.3803,0.710867
2638,-0.164336,0.074593,0.598898
2639,-0.209841,-0.068783,0.461411
2640,-0.184083,-0.124114,0.330726
2641,-0.140833,0.040454,0.393605
2642,-0.04952,-0.264175,0.36441
2643,-0.026535,-0.304583,0.380545
2644,0.134158,-0.11064,0.378213
2645,0.143734,-0.171191,0.249969
2646,0.136416,-0.178599,0.221939
2647,0.10739,-0.20326,0.049546
2648,0.043946,-0.175172,0.098408
2649,0.040617,-0.179832,0.066783
2650,-0.168139,-0.189105,0.13115
2651,-0.104645,0.076049,-0.117896
2652,-0.09866,0.076018,-0.145715
2653,0.192601,0.259055,-0.216652
2654,0.309098,0.407589,0.017125
2655,0.096353,0.375008,0.037344
2656,-0.281222,0.283747,-0.22897
2657,-0.121972,0.081358,0.00662
2658,-0.017263,0.181817,0.128504
2659,0.116563,0.280128,0.175235
2660,-0.351467,0.673151,0.462361
2661,-0.493818,0.398637,0.552349
2662,-0.510814,0.290044,0.571161
2663,-0.277204,0.455054,0.524218
2664,-0.310376,0.587181,0.451182
2665,-0.388477,0.593844,0.671813
2666,-0.173591,0.391119,0.880681
2667,0.061295,0.24271,0.761392
2668,0.041788,-0.016414,0.560828
2669,-0.03839,-0.074892,0.584921
2670,-0.05926,-0.252679,0.58707
2671,0.089473,-0.466157,0.715176
2672,0.121539,-0.489271,0.715949
2673,0.149196,-0.430457,0.692163
2674,0.113575,-0.366157,0.600168
2675,0.091438,-0.316625,0.549412
2676,0.109886,-0.315061,0.514308
2677,0.09372,-0.39616,0.359912
2678,-0.040393,-0.260306,0.067093
2679,-0.149836,-0.141157,-0.057143
2680,-0.26331,1.499139,-0.758121
2681,-0.70183,1.546981,-0.674508
2682,-0.635386,0.579844,-0.545787
2683,0.222379,-0.922917,-0.200534
2684,0.329824,-0.177379,0.219753
2685,0.329548,-0.057982,0.280867
2686,-1.010885,2.139555,0.837056
2687,-0.259045,-0.458031,1.345024
2688,-0.246376,-0.448717,1.347272
2689,0.040706,-0.288766,-0.086994
2690,0.667046,1.082973,0.497594
2691,0.403244,1.219263,0.846137
2692,-0.105893,0.282479,0.700171
2693,-0.144627,-0.10989,0.503726
2694,-0.167674,-0.131096,0.372267
2695,-0.127523,-0.041374,0.447433
2696,-0.043884,-0.129541,0.400982
2697,-0.014319,-0.207187,0.370716
2698,0.063815,-0.247318,0.341851
2699,0.121402,-0.187139,0.235065
2700,0.14719,-0.120322,0.203155
2701,0.125854,-0.049481,0.149109
2702,0.07546,-0.20559,0.071357
2703,-0.010441,-0.219299,0.038785
2704,-0.160302,-0.057132,-0.067476
2705,-0.066441,0.089737,-0.14961
2706,-0.020264,0.109056,-0.18562
2707,0.130062,0.269693,-0.173911
2708,0.226326,0.426499,0.051417
2709,-0.206204,0.329046,-0.059946
2710,-0.295386,0.17379,-0.201463
2711,-0.155116,0.123428,-0.137334
2712,-0.014208,-0.057345,-0.038346
2713,0.093263,0.101853,0.113361
2714,0.100634,0.318079,0.219585
2715,-0.320178,0.629692,0.683501
2716,-0.529052,0.424283,0.59424
2717,-0.414255,0.340224,0.584376
2718,-0.347502,0.40272,0.543834
2719,-0.378351,0.642905,0.460163
2720,-0.270408,0.419565,0.801599
2721,-0.128236,0.38629,0.90331
2722,0.10731,0.099029,0.665477
2723,-0.003589,-0.008337,0.657954
2724,0.000463,-0.03752,0.655932
2725,-0.016399,-0.283503,0.641977
2726,0.028184,-0.379064,0.724563
2727,0.106635,-0.42715,0.76626
2728,0.142743,-0.403354,0.695939
2729,0.165043,-0.387893,0.636776
2730,0.11663,-0.310588,0.495952
2731,0.09228,-0.434116,0.355141
2732,0.025504,-0.364353,0.085517
2733,-0.177083,-0.013563,-0.175724
2734,-0.166897,1.118047,-0.702971
2735,-0.840649,1.943268,-0.715195
2736,-0.722934,0.194966,-0.351141
2737,0.038828,-0.708047,-0.482749
2738,0.288867,0.444705,0.239477
2739,0.14937,1.02072,0.273668
2740,-0.385468,1.449322,1.175291
2741,0.102155,-1.042816,1.471593
2742,-0.277502,-0.235445,0.541293
2743,0.368465,1.058046,0.161712
2744,0.515574,0.845334,0.852197
2745,0.147024,0.351033,0.789346
2746,-0.09518,-0.041207,0.508333
2747,-0.157972,0.090622,0.315335
2748,-0.122879,0.055493,0.324053
2749,0.024752,0.058749,0.409706
2750,0.080335,-0.167632,0.410679
2751,0.051237,-0.21598,0.390328
2752,0.032001,-0.239806,0.301639
2753,0.097992,-0.168389,0.103231
2754,0.178879,-0.129083,0.05975
2755,0.203105,-0.15312,0.122359
2756,0.170252,-0.156414,0.157968
2757,-0.045588,-0.093869,0.17833
2758,-0.076702,0.029126,-0.000537
2759,-0.003673,0.092305,-0.173612
2760,0.021452,0.246756,-0.181956
2761,0.232353,0.407981,0.056662
2762,0.159334,0.380232,0.154103
2763,-0.050338,0.455355,0.117906
2764,-0.12977,0.156522,-0.048893
2765,0.136701,0.18934,0.099931
2766,0.17726,0.164513,0.143582
2767,-0.205175,0.569321,0.275278
2768,-0.367341,0.209552,0.470938
2769,-0.360829,0.206824,0.56696
2770,-0.22015,0.417996,0.61917
2771,-0.330764,0.619953,0.519034
2772,-0.394003,0.629636,0.549055
2773,-0.220779,0.410679,0.978887
2774,0.177125,0.463968,0.915735
2775,0.21739,0.385879,0.817663
2776,-0.04563,-0.035236,0.5803
2777,-0.026706,-0.251014,0.520991
2778,0.023289,-0.310924,0.518225
2779,0.175542,-0.429068,0.664267
2780,0.165151,-0.415025,0.668163
2781,0.189347,-0.373143,0.657366
2782,0.171817,-0.328982,0.602188
2783,0.176136,-0.32695,0.483209
2784,0.134189,-0.4146,0.34559
2785,0.042234,-0.254095,0.022931
2786,-0.175092,0.228415,-0.371022
2787,-0.484809,1.534625,-0.585401
2788,-0.829463,1.25858,-0.505832
2789,0.208597,-0.80024,-0.5685
2790,0.474813,-0.711877,-0.270093
2791,0.567791,-0.241878,0.253436
2792,-0.01207,1.548884,1.006008
2793,-0.584817,2.668663,1.196336
2794,-0.78659,0.122964,0.81209
2795,-0.167609,-0.723449,0.58651
2796,-0.216367,0.021223,-0.285296
2797,0.84975,1.437291,0.636317
2798,0.168589,0.541443,0.977696
2799,-0.010752,0.116547,0.65345
2800,-0.195798,-0.247016,0.374173
2801,-0.218769,-0.109094,0.316938
2802,-0.125756,-0.049475,0.383168
2803,0.056348,-0.107585,0.427936
2804,0.118518,-0.128169,0.33044
2805,0.140416,-0.170658,0.226687
2806,0.209229,-0.16856,0.14623
2807,0.327441,-0.071105,0.100931
2808,0.265377,-0.096006,0.064727
2809,-0.081442,-0.184685,0.209466
2810,-0.144928,-0.17752,0.18588
2811,-0.06701,0.114342,-0.043836
2812,0.047915,0.116599,-0.123235
2813,0.206711,0.163008,-0.150948
2814,0.437388,0.441734,0.029434
2815,0.149561,0.425083,0.151592
2816,-0.271303,0.285024,-0.09472
2817,-0.32742,-0.018961,-0.072707
2818,0.095713,0.144733,0.123058
2819,0.113519,0.377398,0.130474
2820,0.032606,0.595945,0.213468
2821,-0.384056,0.379956,0.579677
2822,-0.451784,0.387904,0.609238
2823,-0.39479,0.383169,0.672951
2824,-0.366968,0.588556,0.409504
2825,-0.320806,0.544482,0.597701
2826,-0.231756,0.482588,0.844017
2827,0.180363,0.386688,0.761525
2828,0.07287,0.07458,0.534677
2829,0.021075,-0.021985,0.551749
2830,-0.018124,-0.151516,0.618599
2831,0.124618,-0.351887,0.781968
2832,0.152226,-0.329104,0.787917
2833,0.142971,-0.352682,0.666479
2834,0.19679,-0.357852,0.611605
2835,0.185618,-0.2623,0.528636
2836,0.21172,-0.26326,0.464622
2837,0.143376,-0.361597,0.29482
2838,-0.004873,-0.238785,-0.080726
2839,-0.30151,0.166338,-0.468761
2840,-0.675899,1.729737,-0.389962
2841,-0.662402,1.420982,-0.309457
2842,-0.30695,-0.338552,-0.48083
2843,0.301052,-0.512566,0.017243
2844,0.28556,-0.177096,0.184362
2845,0.014315,1.039351,0.506415
2846,-0.919209,0.598185,0.848945
2847,-0.260748,-1.246514,1.322573
2848,0.02717,-0.883844,0.786247
2849,0.818729,1.333994,0.507192
2850,0.811911,1.314306,0.661587
2851,0.168789,0.425969,0.721707
2852,-0.060633,-0.080856,0.422268
2853,-0.094034,-0.072135,0.335275
2854,-0.070164,0.108743,0.542481
2855,-0.094528,0.063415,0.510694
2856,-0.109406,-0.193958,0.447311
2857,0.042878,-0.196886,0.405199
2858,0.069234,-0.1635,0.333639
2859,0.095176,-0.147902,0.179852
2860,0.141883,-0.106735,0.189048
2861,0.171079,-0.115404,0.168535
2862,0.030915,-0.108032,0.140096
2863,-0.144437,-0.1452,0.06663
2864,-0.100582,-0.015803,-0.084992
2865,0.067278,0.129291,-0.140152
2866,0.154186,0.279717,-0.110967
2867,0.261368,0.34414,0.003771
2868,0.080136,0.463294,0.123304
2869,-0.370823,0.125073,-0.170039
2870,-0.257195,0.054455,-0.081759
2871,-0.054489,0.174506,0.095656
2872,0.14776,0.391472,0.183779
2873,-0.281746,0.542769,0.395774
2874,-0.412414,0.382474,0.580971
2875,-0.434214,0.288753,0.639851
2876,-0.362218,0.495453,0.461519
2877,-0.413853,0.673789,0.456389
2878,-0.400927,0.472174,0.593301
2879,-0.057346,0.421687,0.928875
2880,0.101808,0.374939,0.829973
2881,0.052657,0.088999,0.562733
2882,-0.04363,-0.170784,0.495023
2883,-0.017945,-0.130727,0.523175
2884,0.181284,-0.282659,0.589995
2885,0.219461,-0.371126,0.720121
2886,0.243112,-0.334287,0.735794
2887,0.188062,-0.427967,0.710215
2888,0.1191,-0.332246,0.564577
2889,0.134029,-0.30021,0.421071
2890,0.076245,-0.347188,0.073386
2891,-0.226717,0.048276,-0.206028
2892,-0.380107,0.395397,-0.233954
2893,-0.98156,1.560768,-0.3817
2894,-0.4124,-0.241037,-0.497064
2895,-0.160709,-0.742257,-0.520425
2896,0.366899,-0.480202,-0.068529
2897,0.357371,1.015137,0.489158
2898,0.1148,2.085632,1.119505
2899,0.329299,-1.518044,1.588465
2900,-0.02339,-0.819812,0.917057
2901,-0.132506,-0.125296,-0.142261
2902,0.913043,1.534627,0.766406
2903,0.535922,1.230938,0.957779
2904,-0.261876,-0.012548,0.508089
2905,-0.228288,-0.137191,0.315619
2906,-0.134227,-0.093572,0.318274
2907,-0.034982,-0.024558,0.461672
2908,0.001143,-0.169401,0.416487
2909,0.0735,-0.213512,0.405885
2910,0.145836,-0.178988,0.340678
2911,0.181835,-0.139306,0.202549
2912,0.175946,-0.147211,0.176969
2913,0.180874,-0.110153,0.115836
2914,0.048908,-0.099756,0.169089
2915,-0.097495,-0.148188,0.164592
2916,-0.141503,-0.032626,0.048178
2917,-0.10829,0.084824,-0.114583
2918,-0.080089,0.163847,-0.286793
2919,0.232697,0.368798,-0.175735
2920,0.200903,0.554989,0.249154
2921,-0.158716,0.453961,0.108379
2922,-0.368971,0.323091,-0.044215
2923,-0.284164,-0.009162,-0.011491
2924,0.042116,0.155304,0.162313
2925,0.066496,0.314258,0.220872
2926,-0.097512,0.623431,0.455014
2927,-0.38447,0.36864,0.540595
2928,-0.399423,0.368094,0.587083
2929,-0.211186,0.396524,0.681399
2930,-0.186091,0.523289,0.503562
2931,-0.11402,0.526751,0.630246
2932,-0.019077,0.420091,0.799104
2933,-0.021876,0.169051,0.65396
2934,-0.003268,0.144377,0.645326
2935,-0.051686,0.066621,0.544662
2936,0.04931,-0.238961,0.590159
2937,0.093571,-0.257932,0.63695
2938,0.080005,-0.247563,0.665046
2939,0.059807,-0.295387,0.636537
2940,0.079538,-0.342188,0.650333
2941,0.182249,-0.38338,0.625946
2942,0.154958,-0.394058,0.442744
2943,0.086191,-0.43145,0.335627
2944,-0.225467,0.143711,-0.053365
2945,-0.229279,0.526549,-0.271288
2946,-0.156188,1.12959,-0.504509
2947,-0.455999,0.689923,-0.506878
2948,-0.246707,0.045887,-0.442806
2949,0.137559,-0.665959,-0.349662
2950,0.030214,0.754734,0.509279
2951,-0.219725,1.806331,1.048193
2952,-0.669686,2.548692,1.323889
2953,0.388948,-1.524099,1.553948
2954,0.330483,-0.97361,0.889009
2955,0.640325,1.218466,0.586846
2956,0.407215,1.197641,0.830947
2957,0.070906,0.628112,0.832572
2958,-0.179026,-0.129218,0.493494
2959,-0.134958,-0.08242,0.400853
2960,-0.04999,0.032012,0.4784
2961,-0.016473,-0.015345,0.454678
2962,-0.00621,-0.185542,0.392281
2963,0.073383,-0.199177,0.353363
2964,0.13876,-0.114124,0.298809
2965,0.170657,-0.077047,0.200027
2966,0.196675,-0.105137,0.128231
2967,0.200658,-0.118321,0.106773
2968,0.054137,-0.076174,0.110685
2969,-0.091219,-0.140943,0.103983
2970,-0.164381,-0.005098,0.036733
2971,-0.096653,0.083529,-0.113088
2972,0.227902,0.29594,-0.165857
2973,0.334763,0.361012,-0.041146
2974,0.32367,0.465428,0.299291
2975,-0.415392,0.203401,-0.136216
2976,-0.364217,0.152312,-0.10312
2977,0.137061,0.269648,0.251946
2978,-0.080072,0.327106,0.138796
2979,-0.337012,0.354945,0.096284
2980,-0.470098,0.105586,0.274458
2981,-0.247391,0.512044,0.585974
2982,-0.120567,0.576249,0.621757
2983,-0.25071,0.470228,0.509067
2984,-0.407732,0.458017,0.765187
2985,-0.358756,0.471313,0.874151
2986,-0.101824,0.400114,0.968727
2987,-0.061065,0.11677,0.592584
2988,-0.094498,0.0466,0.599956
2989,-0.029073,-0.150885,0.558113
2990,0.022519,-0.256219,0.638828
2991,0.061891,-0.32279,0.629088
2992,0.118372,-0.326092,0.624714
2993,0.135049,-0.27776,0.632686
2994,0.136183,-0.301441,0.610835
2995,0.148647,-0.255476,0.494599
2996,0.161583,-0.244424,0.425983
2997,0.118882,-0.30092,0.263148
2998,-0.325601,0.190773,-0.24899
2999,-0.340924,0.626503,-0.49654
3000,-0.294914,1.191431,-0.529297
3001,-0.502274,0.543373,-0.512071
3002,-0.010677,-0.791007,-0.420425
3003,0.192391,-0.946788,-0.199252
3004,0.294424,-0.148164,0.378693
3005,-0.001444,0.979944,1.046131
3006,-1.135357,2.534964,0.623046
3007,-0.115586,-0.45477,0.990907
3008,0.618304,-0.975546,1.11723
3009,0.3415,0.67336,0.017295
3010,0.659243,1.252721,0.85474
3011,0.112212,0.696688,0.838382
3012,-0.175666,0.014271,0.464777
3013,-0.218429,-0.147402,0.374375
3014,-0.20608,-0.004453,0.478344
3015,-0.160963,-0.063622,0.451203
3016,-0.023089,-0.209836,0.4116
3017,0.156185,-0.087879,0.461506
3018,0.186373,-0.073352,0.37794
3019,0.197074,-0.077709,0.231385
3020,0.136185,-0.123605,0.102867
3021,0.018303,-0.226906,0.057808
3022,-0.068897,-0.257833,0.070157
3023,-0.161257,-0.166189,0.087594
3024,-0.127359,-0.030529,0.003982
3025,-0.027912,0.086707,-0.096552
3026,0.164421,0.30776,-0.225494
3027,0.190413,0.366689,-0.157887
3028,0.090665,0.333711,0.071764
3029,-0.349013,0.177422,-0.196466
3030,-0.34693,0.078854,-0.113578
3031,-0.062348,0.081971,0.110901
3032,0.008821,0.516957,0.208007
3033,-0.121975,0.741785,0.422475
3034,-0.513885,0.433422,0.657168
3035,-0.432875,0.483712,0.706386
3036,-0.316462,0.485403,0.667097
3037,-0.34078,0.699159,0.491141
3038,-0.288026,0.76553,0.636135
3039,-0.118347,0.533321,0.992214
3040,0.006321,0.165017,0.72087
3041,0.014449,0.069708,0.671465
3042,0.026617,-0.235994,0.537101
3043,0.081702,-0.387761,0.6339
3044,0.0771,-0.394804,0.759606
3045,0.106339,-0.363903,0.790146
3046,0.113479,-0.395892,0.713617
3047,0.102074,-0.391649,0.61814
3048,0.076471,-0.280682,0.532652
3049,0.045176,-0.394036,0.406654
3050,-0.025682,-0.36798,0.141318
3051,-0.10863,-0.030017,-0.177919
3052,-0.322566,0.782412,-0.485007
3053,-0.850327,2.062835,-0.459977
3054,-0.642778,0.366323,-0.59952
3055,0.18905,-1.144841,-0.617554
3056,0.597106,-0.533297,0.169085
3057,0.625334,-0.38649,0.38923
3058,-1.371888,2.826335,0.489575
3059,-0.060527,-0.864266,1.507076
3060,0.563879,-1.515278,1.526707
3061,-0.175049,-0.250079,-0.279064
3062,0.687063,1.623519,0.806799
3063,0.391177,1.413163,0.999947
3064,-0.119518,0.225178,0.72788
3065,-0.286829,-0.32362,0.428513
3066,-0.273009,-0.286937,0.32497
3067,-0.108223,-0.057794,0.420569
3068,0.057355,-0.213535,0.381215
3069,0.04079,-0.25287,0.343229
3070,0.068074,-0.248167,0.316881
3071,0.124445,-0.132688,0.177863
3072,0.147166,-0.097472,0.111367
3073,0.156382,-0.080492,-0.006776
3074,-0.069121,-0.223147,0.197076
3075,-0.136624,-0.125611,0.16371
3076,-0.180556,0.099919,-0.035446
3077,-0.078618,0.128862,-0.188229
3078,-0.013342,0.109952,-0.192716
3079,0.34438,0.382875,0.226761
3080,0.031729,0.402792,0.097029
3081,-0.326967,0.292232,-0.197996
3082,-0.267068,-0.051305,0.000703
3083,-0.107486,-0.024033,0.095522
3084,0.042364,0.530311,0.324407
3085,-0.43108,0.852269,0.597974
3086,-0.545507,0.546854,0.643721
3087,-0.435647,0.445702,0.642522
3088,-0.170119,0.572224,0.5987
3089,-0.22173,0.62816,0.558576
3090,-0.28377,0.492517,0.719592
3091,-0.066568,0.261597,0.841019
3092,-0.027231,0.09897,0.801893
3093,-0.037999,-0.063259,0.610167
3094,0.04832,-0.289937,0.566207
3095,0.081636,-0.305077,0.607229
3096,0.021199,-0.281157,0.786425
3097,0.058338,-0.289051,0.763022
3098,0.106201,-0.331206,0.652463
3099,0.062037,-0.310715,0.547866
3100,0.046745,-0.308322,0.465734
3101,0.030294,-0.354923,0.397548
3102,-0.03074,-0.360984,0.286389
3103,-0.192052,0.054507,-0.103359
3104,-0.191687,1.155822,-0.574162
3105,-0.334589,1.986782,-0.5596
3106,-0.684043,-0.127522,-0.723962
3107,0.131575,-1.169867,-0.328296
3108,0.365659,-0.840911,0.131103
3109,0.326354,0.51641,0.794428
3110,-0.762107,2.516404,1.098823
3111,-1.167041,1.856718,0.401856
3112,0.613997,-1.136166,1.377141
3113,0.018069,-0.473251,0.588716
3114,0.307191,0.701557,0.405609
3115,0.247819,0.960342,0.888362
3116,-0.077518,0.205297,0.627789
3117,-0.201888,-0.088106,0.480325
3118,-0.203325,-0.108485,0.43008
3119,-0.14644,-0.050112,0.485066
3120,-0.023453,-0.115486,0.448767
3121,0.041446,-0.142808,0.413105
3122,0.075593,-0.110445,0.343408
3123,0.105494,-0.157849,0.229353
3124,0.135499,-0.122012,0.1403
3125,0.164412,-0.071223,0.144768
3126,0.017216,-0.088664,0.145791
3127,-0.113389,-0.215886,0.135414
3128,-0.198377,0.019519,-0.026107
3129,-0.166001,0.075204,-0.094115
3130,-0.121967,0.061146,-0.230954
3131,0.208265,0.358687,-0.066322
3132,0.271506,0.419137,0.067374
3133,-0.036195,0.303717,0.076566
3134,-0.37804,0.180182,0.008264
3135,-0.153692,0.126451,0.204161
3136,-0.125518,0.532298,0.247449
3137,-0.33784,0.590413,0.322391
3138,-0.510029,0.313785,0.522163
3139,-0.38224,0.45009,0.557762
3140,-0.266604,0.42349,0.564055
3141,-0.360275,0.589724,0.5753
3142,-0.282402,0.576796,0.901553
3143,-0.018084,0.418089,0.855896
3144,-0.023163,0.152028,0.612234
3145,-0.147001,-0.084094,0.502053
3146,-0.183266,-0.191831,0.58617
3147,-0.03554,-0.22439,0.673072
3148,0.036238,-0.314806,0.696271
3149,0.064855,-0.400164,0.726062
3150,0.114761,-0.367646,0.674851
3151,0.14576,-0.380931,0.598755
3152,0.100316,-0.271401,0.533134
3153,0.077621,-0.341786,0.469219
3154,-0.025551,-0.313035,0.170402
3155,-0.097002,-0.187146,-0.00471
3156,-0.239466,-0.031704,-0.10601
3157,-0.364344,1.837519,-0.457855
3158,-0.745528,1.297307,-0.47104
3159,-0.435181,-0.716847,-0.644804
3160,0.21143,-0.797073,-0.051293
3161,0.380944,0.009771,0.338737
3162,0.036681,1.908545,1.261897
3163,-0.7125,0.833538,0.715576
3164,0.181259,-0.612472,0.929533
3165,-0.132261,-0.085285,0.016315
3166,0.480013,1.036966,0.533463
3167,0.297422,1.107845,0.806944
3168,-0.097561,0.317758,0.673655
3169,-0.159031,0.03576,0.474889
3170,-0.142656,0.019968,0.459869
3171,-0.083618,-0.014309,0.524608
3172,-0.01925,-0.122843,0.438669
3173,-0.030598,-0.164638,0.344361
3174,-0.010667,-0.15485,0.321716
3175,0.03597,-0.128214,0.257775
3176,0.077954,-0.157168,0.165161
3177,0.078663,-0.131665,0.139636
3178,0.067706,-0.082792,0.111635
3179,0.020053,-0.084215,0.172783
3180,-0.064628,-0.087157,0.161588
3181,-0.118924,0.038922,-0.060453
3182,-0.103669,0.052308,-0.19676
3183,0.106502,0.078532,-0.241369
3184,0.300746,0.42316,0.10368
3185,-0.04481,0.428971,-0.024832
3186,-0.180693,0.439739,-0.106917
3187,-0.003547,0.003709,0.227275
3188,-0.042225,0.001717,0.252433
3189,-0.373511,0.487414,0.350484
3190,-0.503765,0.502234,0.43615
3191,-0.377477,0.556154,0.607183
