,userAcceleration.x,userAcceleration.y,userAcceleration.z
0,-0.327269,-0.227803,0.307002
1,0.023565,-0.093848,0.477069
2,0.262658,0.050783,0.470271
3,0.174814,0.1748,0.367468
4,-0.072821,0.121614,0.221985
5,-0.170963,-0.058648,0.147902
6,-0.151548,-0.207395,0.117442
7,-0.111498,-0.361845,0.182681
8,-0.053375,-0.453926,0.225169
9,-0.011508,-0.285169,0.190641
10,0.011041,-0.130086,0.096569
11,0.035227,-0.294338,-0.024201
12,-0.00204,-0.326604,-0.022074
13,-0.040936,-0.265256,0.022117
14,0.051836,-0.030317,-0.02358
15,0.111122,-0.018169,-0.012895
16,0.17466,-0.095849,0.01763
17,0.21886,-0.080943,-0.044942
18,0.31218,-0.066617,-0.099711
19,0.539642,0.018497,-0.068688
20,0.417859,0.186247,-0.091377
21,0.298725,0.341378,-0.026414
22,0.374376,0.46852,0.138517
23,0.130906,0.466193,0.198131
24,-0.156308,0.527176,0.184466
25,-0.565485,0.775789,0.154949
26,-0.590283,0.890989,0.317372
27,-0.377381,0.486784,0.244423
28,-0.03949,0.348767,0.084607
29,0.072574,0.270508,-0.118104
30,0.037222,0.162277,-0.060869
31,0.024558,-0.15476,0.046512
32,-0.110585,-0.31462,0.174041
33,-0.18633,-0.31965,0.347609
34,-0.128986,-0.446025,0.178137
35,-0.183734,-0.552648,0.220317
36,-0.172975,-0.595308,0.232398
37,-0.135418,-0.658465,0.292016
38,-0.062431,-0.682855,0.246274
39,-0.010376,-0.71865,0.223128
40,0.063987,-0.553006,0.110746
41,0.051054,-0.316241,-0.030254
42,-0.023869,-0.154018,-0.088703
43,-0.054916,0.66728,-0.238726
44,0.11033,0.895835,-0.459234
45,0.072939,0.6644,-0.488976
46,-0.016299,0.157731,-0.277781
47,0.093237,0.805313,-0.043639
48,0.022892,1.478522,0.134119
49,-0.443989,0.865011,0.447435
50,-0.491711,-0.590134,0.378215
51,-0.359599,-0.591172,0.325912
52,0.128816,-0.192334,0.532489
53,0.338027,-0.04652,0.536567
54,0.073324,0.381153,0.338975
55,-0.141623,0.203288,0.068782
56,-0.090274,-0.017522,0.092804
57,-0.054166,-0.321141,0.169062
58,-0.05546,-0.459281,0.218261
59,-0.055906,-0.586341,0.267393
60,-0.064596,-0.417921,0.245676
61,-0.020869,-0.083043,0.124729
62,0.002522,-0.248732,-0.035428
63,-0.042638,-0.332517,0.005019
64,-0.03804,-0.263991,0.156734
65,0.102789,-0.101151,0.013851
66,0.106421,-0.112098,-0.057695
67,0.156189,-0.091865,0.02486
68,0.369509,-0.040848,-0.111737
69,0.496373,-0.011524,-0.12876
70,0.605405,0.032724,-0.00564
71,0.336393,0.357483,0.144456
72,0.21579,0.398954,0.244625
73,0.014316,0.559228,0.298571
74,-0.244583,0.617034,0.210162
75,-0.649408,0.735632,0.224769
76,-0.577286,0.64142,0.32129
77,-0.366146,0.527476,0.295443
78,-0.252765,0.530249,0.167921
79,-0.123995,0.417433,0.001955
80,0.061483,0.241376,-0.023617
81,0.166221,0.075263,-0.019999
82,-0.021442,-0.245809,-0.439345
83,-0.14413,-0.22718,0.109226
84,-0.121103,-0.285825,0.163337
85,-0.119525,-0.543092,0.240224
86,-0.084939,-0.684097,0.306085
87,-0.063763,-0.704525,0.32988
88,-0.12264,-0.737478,0.306327
89,-0.051322,-0.787928,0.224063
90,-0.018785,-0.731187,0.204796
91,0.030794,-0.411342,0.02453
92,0.016597,-0.030125,-0.053412
93,-0.060234,0.276872,-0.115509
94,0.215695,1.167205,-0.400078
95,-0.163726,0.303088,-0.405497
96,-0.174505,0.309482,-0.392737
97,-0.015355,1.527415,0.042722
98,-0.017458,1.536569,0.062546
99,-0.168921,-0.12279,0.264848
100,-0.394336,-0.239521,0.28213
101,-0.363996,-0.035035,0.336106
102,-0.087814,-0.01686,0.466552
103,0.093309,0.042224,0.517912
104,0.123883,0.043568,0.367884
105,0.002074,0.17488,0.200711
106,-0.09063,0.093718,0.185894
107,-0.105717,-0.120478,0.211594
108,-0.09219,-0.27563,0.197047
109,-0.10191,-0.35226,0.238185
110,-0.05554,-0.368662,0.254258
111,-0.041806,-0.321907,0.207147
112,0.019687,-0.242264,0.088007
113,-0.089545,-0.358244,0.048208
114,-0.077524,-0.319498,0.089062
115,-0.165178,-0.174794,-0.041818
116,0.06948,0.062099,0.071972
117,0.184869,0.002249,0.02422
118,0.158211,0.014103,-0.021092
119,0.184404,0.009764,0.007525
120,0.468528,0.031169,-0.096254
121,0.467039,0.125264,-0.108475
122,0.382594,0.181104,-0.040627
123,0.077704,0.528506,0.009724
124,0.10276,0.378774,0.18811
125,0.081209,0.361164,0.188143
126,-0.183054,0.327822,0.219893
127,-0.30374,0.521127,0.157634
128,-0.423785,0.730199,0.241074
129,-0.48926,0.762564,0.335552
130,-0.304074,0.373463,0.132318
131,-0.225302,0.308897,0.042329
132,-0.078354,0.229176,0.002646
133,0.146404,-0.198138,0.094685
134,0.077719,-0.23701,-0.116301
135,-0.078169,-0.23138,0.190953
136,-0.141167,-0.489134,0.233811
137,-0.122378,-0.642685,0.237135
138,-0.068624,-0.685459,0.258605
139,0.008435,-0.661634,0.316331
140,0.036873,-0.735408,0.284605
141,0.061081,-0.695745,0.236287
142,0.081118,-0.531755,0.084452
143,-0.013963,-0.152017,0.014728
144,-0.011827,0.110543,-0.0886
145,0.101869,0.768327,-0.240759
146,-0.023579,0.79957,-0.409178
147,-0.163243,0.574433,-0.380278
148,-0.270924,0.968755,-0.227292
149,-0.217919,1.965194,0.259545
150,-0.181363,0.777602,0.22682
151,-0.423095,-0.899231,0.406103
152,-0.25283,-0.003796,0.394708
153,-0.07,-0.087199,0.44799
154,0.345349,0.280039,0.669568
155,-0.008387,0.18397,0.390391
156,-0.155036,0.135937,0.183866
157,-0.217649,0.012359,0.068431
158,-0.092497,-0.281381,0.205004
159,-0.044236,-0.345665,0.21135
160,0.047393,-0.37738,0.206731
161,-0.048207,-0.38521,0.247881
162,-0.046757,-0.343343,0.222062
163,0.006636,-0.174153,0.059824
164,0.023367,-0.199942,-0.003771
165,0.021348,-0.269141,-0.023225
166,-0.051503,-0.17555,0.005667
167,0.024589,-0.053151,0.022843
168,0.152537,-0.077207,0.134313
169,-0.01723,-0.23853,-0.041784
170,0.162742,-0.067176,-0.028521
171,0.480683,0.037356,-0.092601
172,0.604681,0.148276,-0.049213
173,0.484964,0.341284,-0.034496
174,0.206084,0.482342,0.087587
175,0.079501,0.584392,0.227268
176,-0.112818,0.57275,0.206658
177,-0.295242,0.516613,0.220382
178,-0.427336,0.520629,0.160632
179,-0.436356,0.740665,0.336348
180,-0.356712,0.617641,0.303005
181,-0.34446,0.499205,0.13487
182,-0.317254,0.377878,0.074706
183,0.012821,0.021258,0.044262
184,0.03499,-0.21736,-0.210665
185,-0.102797,-0.258907,0.092941
186,-0.143489,-0.377217,0.172704
187,-0.12795,-0.5568,0.228031
188,-0.05915,-0.676484,0.298027
189,-0.063477,-0.710195,0.344696
190,-0.065242,-0.75508,0.315253
191,-0.046452,-0.812669,0.251295
192,0.024604,-0.695894,0.208549
193,0.057979,-0.58376,0.030344
194,0.02632,-0.286747,-0.073707
195,-0.040304,-0.066266,-0.038394
196,0.055519,0.930411,-0.227888
197,-0.036812,0.687747,-0.453744
198,-0.033385,0.19146,-0.3526
199,-0.214335,0.352172,-0.26606
200,-0.274155,1.590995,0.204284
201,-0.407663,1.557245,0.433407
202,-0.345242,0.192063,0.437151
203,-0.571869,-0.603625,0.340837
204,-0.398767,-0.288415,0.35193
205,-0.003787,-0.175091,0.532743
206,0.357184,0.316009,0.481767
207,0.19659,0.384547,0.37997
208,-0.136327,0.305585,0.192779
209,-0.181812,-0.179137,0.235089
210,-0.179236,-0.296377,0.2043
211,-0.135917,-0.376904,0.211465
212,-0.058349,-0.387293,0.26413
213,-0.048606,-0.370343,0.244124
214,0.012273,-0.164087,0.133826
215,0.020362,-0.30303,-0.000559
216,-0.048835,-0.388465,0.045184
217,-0.069935,-0.230968,0.091254
218,-0.035338,-0.107831,0.049993
219,-0.013833,-0.072374,0.024575
220,0.012049,-0.099544,0.028316
221,0.106763,-0.022316,-0.001907
222,0.381265,-0.034243,-0.117801
223,0.535081,0.093103,-0.080471
224,0.444755,0.218544,-0.045705
225,0.373192,0.421354,-0.133644
226,0.179362,0.455883,0.108299
227,0.105578,0.47823,0.100151
228,-0.041659,0.458792,0.186574
229,-0.450147,0.409332,0.207331
230,-0.490424,0.614858,0.231979
231,-0.532035,0.658557,0.338071
232,-0.322312,0.42408,0.272983
233,-0.324789,0.33093,0.093583
234,-0.280772,0.373011,0.047846
235,0.082778,-0.10156,0.154933
236,0.034166,-0.167357,-0.002265
237,-0.075343,-0.22335,0.195748
238,-0.145849,-0.444249,0.207586
239,-0.149678,-0.650612,0.227987
240,-0.109235,-0.682513,0.239235
241,-0.044528,-0.652005,0.2768
242,0.030472,-0.699562,0.272198
243,0.04274,-0.690972,0.251012
244,0.082202,-0.565328,0.165581
245,0.054305,-0.318937,0.108628
246,-0.115956,0.107017,-0.014846
247,-0.314906,0.747852,-0.164006
248,-0.100242,1.208003,-0.521737
249,-0.181778,0.228094,-0.406826
250,-0.110049,-0.014658,-0.315839
251,0.173569,1.006862,0.01735
252,-0.01704,1.354779,0.160075
253,-0.237838,1.086622,0.487914
254,-0.345588,-0.405718,0.345269
255,-0.35347,-0.380972,0.278209
256,-0.167914,-0.102265,0.407358
257,0.192832,0.049983,0.510051
258,0.234424,0.159193,0.48685
259,-0.210921,0.218086,0.282146
260,-0.251139,0.171154,0.21986
261,-0.209219,-0.001498,0.20865
262,-0.146249,-0.275925,0.21012
263,-0.11003,-0.391861,0.265475
264,-0.097601,-0.395318,0.272445
265,-0.061585,-0.200485,0.210095
266,-0.009047,-0.209403,0.106115
267,0.011114,-0.282798,0.079428
268,-0.07632,-0.384456,0.115737
269,-0.038655,-0.329941,0.098098
270,0.040198,-0.128654,0.073987
271,0.015447,-0.053609,-0.047586
272,0.049176,-0.008944,0.035006
273,0.071387,0.037429,0.0534
274,0.40523,-0.022048,-0.10133
275,0.53468,0.065702,-0.104463
276,0.508442,0.170871,-0.075237
277,0.23773,0.337676,0.102974
278,0.1588,0.43164,0.239198
279,-0.008083,0.543117,0.189597
280,-0.361493,0.520277,0.185636
281,-0.533159,0.420148,0.222394
282,-0.453004,0.464845,0.247525
283,-0.355231,0.513501,0.335527
284,-0.160553,0.51219,0.222096
285,-0.122746,0.478106,0.137755
286,-0.103358,0.302584,-0.017273
287,0.029153,-0.111726,0.115495
288,-0.114241,-0.240769,0.279209
289,-0.065959,-0.297841,0.245667
290,-0.119514,-0.437853,0.216804
291,-0.165648,-0.568626,0.231141
292,-0.138752,-0.690724,0.292215
293,-0.101283,-0.714155,0.337639
294,-0.039813,-0.752452,0.321047
295,0.005437,-0.743671,0.281277
296,0.066701,-0.620207,0.20431
297,0.04197,-0.335084,0.015649
298,-0.083466,0.100655,-0.046623
299,-0.024847,1.000421,-0.326142
300,0.006604,1.078416,-0.398102
301,-0.119379,0.333223,-0.454066
302,-0.036526,0.052117,-0.373752
303,0.09104,0.227153,-0.314859
304,0.192021,0.983634,-0.001283
305,-0.251582,1.36102,0.641889
306,-0.197435,0.995617,0.627542
307,-0.550706,-0.549295,0.202653
308,-0.290946,-0.274568,0.431821
309,-0.069115,-0.310461,0.498753
310,0.377251,0.282356,0.54335
311,0.127254,0.561344,0.308813
312,-0.143422,0.164515,0.091836
313,-0.142069,-0.202157,0.137549
314,-0.08994,-0.38498,0.203873
315,-0.103739,-0.489749,0.269368
316,-0.106722,-0.469664,0.322771
317,-0.106597,-0.332013,0.285658
318,-0.013753,-0.109658,0.097004
319,-0.04835,-0.293809,0.001543
320,-0.104803,-0.353633,0.098684
321,-0.066679,-0.325883,0.128476
322,0.015723,-0.180802,0.097437
323,0.006939,-0.094005,0.015976
324,-0.001761,-0.04744,-0.015938
325,0.136153,0.025524,0.026078
326,0.408358,0.049596,-0.102699
327,0.523707,0.138349,-0.109545
328,0.56645,0.326688,-0.106415
329,0.317348,0.46749,0.174187
330,0.273215,0.506762,0.261893
331,-0.001421,0.52856,0.202873
332,-0.538643,0.505506,0.169977
333,-0.590631,0.63006,0.225661
334,-0.572154,0.713003,0.418794
335,-0.402563,0.50869,0.361847
336,-0.112759,0.456936,0.164913
337,-0.058645,0.391793,0.036053
338,-0.059888,0.184671,0.007977
339,0.036115,-0.047663,0.04845
340,-0.099486,-0.186635,0.159459
341,-0.180061,-0.376683,0.399571
342,-0.146657,-0.436877,0.222883
343,-0.165399,-0.596963,0.294514
344,-0.168161,-0.688016,0.358122
345,-0.141194,-0.687197,0.382483
346,-0.059325,-0.747485,0.349802
347,-0.000617,-0.684501,0.262068
348,0.007756,-0.628745,0.195695
349,0.008159,-0.252012,0.038868
350,0.001968,-0.068119,-0.012752
351,-0.052798,0.580132,-0.246159
352,0.098366,1.330086,-0.382215
353,0.022423,0.477375,-0.406373
354,-0.18258,0.185419,-0.232827
355,0.028329,0.997271,-0.037404
356,-0.39822,1.458061,0.216953
357,-0.425182,1.192441,0.403826
358,-0.299118,-0.170606,0.427599
359,-0.277765,-0.38184,0.30249
360,-0.030674,-0.165603,0.520854
361,0.252674,-0.00029,0.493783
362,0.160196,0.16846,0.409725
363,-0.104965,0.251449,0.236846
364,-0.160502,0.088508,0.170844
365,-0.136921,-0.168781,0.197368
366,-0.125942,-0.355641,0.214876
367,-0.101083,-0.448686,0.327227
368,-0.110826,-0.430995,0.303998
369,-0.088607,-0.337593,0.277187
370,-0.028224,-0.147024,0.099468
371,-0.020504,-0.302056,-0.024648
372,-0.04042,-0.354603,-0.020555
373,-0.002038,-0.246467,0.055863
374,0.10986,-0.047806,0.033806
375,0.139434,-0.081194,0.000305
376,0.130683,-0.06952,0.016607
377,0.159578,0.026664,-0.064867
378,0.397267,-0.00017,-0.051682
379,0.506453,0.191552,0.042255
380,0.345137,0.385042,0.038547
381,0.345511,0.375774,0.096605
382,0.289099,0.524047,0.126532
383,-0.241662,0.587269,0.116216
384,-0.633168,0.760582,0.199061
385,-0.622047,0.852809,0.468101
386,-0.272745,0.488483,0.257089
387,-0.15427,0.426346,0.126182
388,-0.003212,0.537336,-0.037135
389,-0.0165,0.14504,-0.023264
390,-0.043117,0.024084,0.063827
391,-0.096619,-0.202462,0.170697
392,-0.163352,-0.464916,0.26611
393,-0.168037,-0.503787,0.282398
394,-0.210117,-0.692389,0.331638
395,-0.188385,-0.750697,0.318116
396,-0.180547,-0.723609,0.318896
397,-0.038265,-0.783719,0.303264
398,0.007102,-0.757614,0.294897
399,0.043557,-0.608953,0.228094
400,0.06764,-0.342841,0.272318
401,-0.076049,-0.010628,0.169583
402,-0.068896,1.506584,-0.508538
403,-0.078347,0.5765,-0.448564
404,-0.208139,0.030769,-0.252028
405,-0.323457,0.244738,-0.222582
406,-0.051778,1.604266,0.086521
407,-0.133622,0.904611,0.280126
408,-0.175875,0.271915,0.25573
409,-0.157147,-0.155304,0.350469
410,-0.082729,-0.122011,0.494663
411,0.021448,-0.076879,0.567574
412,0.234101,-0.039862,0.526469
413,-0.001885,0.127103,0.383584
414,-0.096614,0.200898,0.286695
415,-0.125319,0.059117,0.216734
416,-0.147594,-0.197027,0.185512
417,-0.163491,-0.308725,0.181354
418,-0.120366,-0.509961,0.316286
419,-0.065013,-0.308997,0.312209
420,-0.012598,-0.232206,0.236654
421,0.04681,-0.280445,0.01911
422,-0.026603,-0.304904,-0.017437
423,-0.053128,-0.266166,0.035852
424,-0.042476,-0.031056,0.101002
425,-0.027076,-0.013473,0.05545
426,0.043894,-0.014619,0.055967
427,0.19875,-0.044095,0.030282
428,0.442975,-0.052032,-0.052903
429,0.603205,0.063457,-0.130183
430,0.467772,0.185482,0.010957
431,0.206059,0.54957,0.06572
432,0.158558,0.534725,0.06666
433,0.137883,0.542187,0.246854
434,-0.276727,0.404057,0.261865
435,-0.532002,0.53162,0.194405
436,-0.58154,0.7046,0.295464
437,-0.408149,0.449498,0.299654
438,-0.278079,0.401048,0.212752
439,0.045784,0.189662,-0.01084
440,0.169772,0.038901,-0.011342
441,0.073405,-0.201166,0.102726
442,-0.163005,-0.347711,0.254369
443,-0.170957,-0.340864,0.274845
444,-0.21969,-0.405688,0.301325
445,-0.160656,-0.671915,0.304463
446,-0.076465,-0.707371,0.309399
447,-0.012706,-0.75095,0.323079
448,0.04256,-0.70993,0.269505
449,0.028081,-0.591273,0.181735
450,0.030025,-0.375577,0.030023
451,-0.099259,0.159196,-0.052567
452,-0.154782,0.484617,-0.091526
453,-0.176843,1.024397,-0.22298
454,-0.234685,0.633876,-0.433921
455,-0.425967,0.243005,-0.262236
456,-0.296495,0.438703,-0.165433
457,-0.163463,1.290306,0.316191
458,-0.300283,1.048812,0.39219
459,-0.248694,0.082623,0.372181
460,-0.29223,-0.17974,0.346838
461,-0.13076,-0.103976,0.507863
462,0.060164,-0.03143,0.533048
463,0.238574,0.16912,0.456075
464,-0.154027,0.20022,0.297642
465,-0.20926,0.080709,0.224671
466,-0.13411,-0.129248,0.200983
467,-0.145316,-0.241154,0.159463
468,-0.117892,-0.505792,0.201304
469,-0.091833,-0.500777,0.250901
470,-0.023853,-0.252946,0.234428
471,-0.011031,-0.194463,0.103505
472,-0.025287,-0.279712,0.037511
473,-0.068453,-0.219844,0.171534
474,-0.067699,-0.165693,0.136892
475,-0.010538,-0.062219,-0.026907
476,0.077367,0.028433,-0.10614
477,0.161272,-0.003997,0.081352
478,0.411038,-0.085129,0.038685
479,0.547992,0.07897,-0.010432
480,0.459341,0.223177,0.010693
481,0.17724,0.488044,0.052667
482,0.178152,0.515145,0.251739
483,0.120251,0.556387,0.196321
484,-0.265962,0.542334,0.207923
485,-0.64182,0.642468,0.237102
486,-0.63273,0.663612,0.339952
487,-0.496547,0.526825,0.409094
488,-0.040544,0.379673,0.120762
489,0.008818,0.438302,0.05808
490,-0.089833,0.275789,0.140758
491,-0.03347,-0.034384,0.068197
492,-0.108582,-0.137727,0.142752
493,-0.21694,-0.482548,0.254642
494,-0.17998,-0.399798,0.095167
495,-0.175338,-0.658546,0.299569
496,-0.130227,-0.659108,0.360253
497,-0.058467,-0.726963,0.370164
498,0.008861,-0.789738,0.351986
499,0.041072,-0.719857,0.281356
500,0.03532,-0.549195,0.07462
501,-0.06283,-0.192191,-0.071108
502,-0.144718,0.377128,-0.148234
503,-0.007903,1.082002,-0.338288
504,0.101537,1.308532,-0.428066
505,0.027345,0.031577,-0.368746
506,-0.126728,0.086838,-0.27084
507,-0.116257,0.294039,-0.165898
508,-0.185565,1.428676,0.401352
509,-0.428765,1.043734,0.515402
510,-0.441672,0.185697,0.500697
511,-0.339945,-0.378968,0.320975
512,-0.050787,-0.195586,0.502623
513,0.19495,-0.135325,0.508836
514,0.368036,0.428893,0.464489
515,-0.085317,0.434508,0.220921
516,-0.201097,0.092489,0.148425
517,-0.153342,-0.224493,0.182064
518,-0.100543,-0.377875,0.220817
519,-0.08591,-0.412541,0.231906
520,-0.104647,-0.430796,0.291789
521,-0.11157,-0.253517,0.224857
522,-0.09089,-0.18398,0.179112
523,-0.039251,-0.425907,0.073095
524,-0.056638,-0.435363,0.147354
525,-0.045274,-0.257856,0.125779
526,-0.054591,-0.14196,0.022163
527,-0.039349,-0.120965,0.092842
528,0.058672,-0.068133,0.181555
529,0.384447,-0.04141,-0.033582
530,0.568944,0.145931,-0.14515
531,0.52851,0.318234,-0.066463
532,0.259537,0.491862,-0.010924
533,0.37034,0.430448,0.248963
534,0.187693,0.4775,0.363056
535,-0.320224,0.518027,0.280636
536,-0.614105,0.637267,0.203727
537,-0.769792,0.848519,0.340262
538,-0.672661,0.752464,0.399049
539,-0.336643,0.500967,0.170863
540,-0.181263,0.462187,0.10056
541,0.099003,0.142546,0.07112
542,0.096261,-0.137183,0.072987
543,-0.132648,-0.292659,0.168992
544,-0.139967,-0.290169,0.230889
545,-0.151734,-0.634282,0.208845
546,-0.123732,-0.664098,0.234661
547,-0.122578,-0.583025,0.331292
548,-0.099517,-0.601168,0.339833
549,-0.063747,-0.644628,0.317164
550,-0.009276,-0.684236,0.242349
551,0.002773,-0.63314,0.203783
552,0.041222,-0.42482,0.036628
553,-0.112569,0.143729,-0.131913
554,-0.111974,0.860884,-0.199962
555,0.025842,1.219455,-0.322295
556,-0.163437,0.514596,-0.273628
557,-0.299361,0.41651,-0.223151
558,-0.132183,1.510934,0.134849
559,-0.317539,0.073277,0.447867
560,-0.405241,-0.410348,0.39756
561,-0.291275,-0.363857,0.425582
562,-0.067172,0.057004,0.54654
563,0.074524,0.130986,0.566453
564,0.169243,0.215653,0.481365
565,-0.258842,0.221179,0.235417
566,-0.23774,0.050795,0.230301
567,-0.174583,-0.055832,0.247716
568,-0.059787,-0.259316,0.249191
569,-0.02878,-0.348091,0.280515
570,-0.018214,-0.378161,0.300976
571,-0.02035,-0.277714,0.244452
572,-0.06392,-0.284147,0.138153
573,-0.080206,-0.320452,0.0828
574,-0.124485,-0.326231,0.141723
575,-0.100856,-0.203228,0.13303
576,-0.075739,-0.147876,0.083711
577,0.108713,-0.008689,-0.02663
578,0.234016,0.079672,-0.000441
579,0.285433,-0.007933,-0.042337
580,0.495097,0.02099,-0.09463
581,0.520566,0.176423,-0.007009
582,0.287269,0.498998,0.112038
583,0.082061,0.551163,0.18025
584,0.110775,0.628481,0.257529
585,-0.264466,0.522875,0.221526
586,-0.622336,0.559334,0.147053
587,-0.632088,0.628705,0.337294
588,-0.435579,0.416829,0.415203
589,-0.163346,0.314146,0.230761
590,0.098158,0.372324,0.066836
591,-0.068182,0.202091,0.120617
592,-0.03414,0.040742,0.008252
593,-0.12972,-0.114027,0.123547
594,-0.2092,-0.330365,0.242468
595,-0.221722,-0.387691,0.136716
596,-0.218794,-0.500989,0.306917
597,-0.158316,-0.623478,0.356458
598,-0.064558,-0.670865,0.392443
599,0.005828,-0.73147,0.319222
600,0.01636,-0.714016,0.294906
601,-0.011032,-0.497711,0.194899
602,0.006443,-0.362019,0.115865
603,-0.046104,-0.070631,0.047794
604,-0.054223,0.943341,-0.25322
605,-0.049284,1.205781,-0.343036
606,-0.169483,0.494555,-0.41998
607,-0.241259,0.147363,-0.260491
608,0.050079,0.883839,-0.045625
609,0.093442,1.638572,0.142425
610,-0.183029,0.45366,0.456597
611,-0.348982,-0.447017,0.442055
612,-0.366994,-0.439374,0.398657
613,-0.055533,-0.050871,0.556931
614,0.296414,0.040586,0.579489
615,0.234449,0.217716,0.43526
616,0.017575,0.334015,0.231093
617,-0.024518,0.167851,0.19711
618,-0.044877,0.01215,0.18164
619,-0.109297,-0.296933,0.228797
620,-0.14927,-0.467264,0.320062
621,-0.131489,-0.452542,0.363379
622,-0.100747,-0.291697,0.329544
623,-0.081856,-0.272323,0.251741
624,-0.061123,-0.434139,0.119504
625,-0.070179,-0.347445,0.182277
626,-0.052835,-0.156587,0.155358
627,0.030186,-0.016041,0.11452
628,0.127602,0.061266,0.037748
629,0.149076,0.130673,0.076033
630,0.284732,0.082287,0.099989
631,0.638561,0.142862,-0.096446
632,0.627069,0.239146,-0.013997
633,0.446933,0.468109,0.030319
634,0.336372,0.479984,0.225574
635,0.20225,0.492266,0.299745
636,-0.230393,0.398229,0.277403
637,-0.522469,0.655205,0.297317
638,-0.54599,0.706882,0.457393
639,-0.385464,0.479867,0.461389
640,-0.178203,0.35057,0.280105
641,0.038471,0.306564,0.119779
642,-0.026735,0.190288,0.199028
643,-0.006213,0.086143,0.17283
644,-0.018854,-0.114415,0.201019
645,-0.07554,-0.372697,0.318781
646,-0.073797,-0.508664,0.30908
647,-0.078139,-0.554336,0.31024
648,-0.080319,-0.683192,0.324855
649,-0.068499,-0.693537,0.374812
650,-0.030549,-0.688669,0.357943
651,0.033862,-0.64033,0.338828
652,0.068009,-0.411485,0.260656
653,-0.004763,-0.134884,0.092659
654,-0.133563,0.258996,0.068895
655,0.163844,0.856309,-0.383618
656,0.157114,0.665429,-0.434669
657,0.08801,0.487915,-0.325558
658,0.020116,0.603898,-0.074671
659,0.032971,1.752515,0.30108
660,-0.040325,1.781549,0.347685
661,-0.59256,-0.458809,0.278728
662,-0.377071,-0.479514,0.253102
663,-0.29408,-0.12547,0.307208
664,0.265258,0.16027,0.615086
665,0.503931,0.374115,0.652923
666,0.253189,0.260868,0.449232
667,-0.202901,0.15192,0.109467
668,-0.053793,-0.049155,0.199347
669,-0.004526,-0.291523,0.241197
670,0.012319,-0.433783,0.311425
671,0.004893,-0.512078,0.366778
672,-0.01437,-0.364985,0.294941
673,-0.019661,-0.264891,0.186306
674,-0.04256,-0.34357,0.166842
675,-0.106631,-0.308783,0.178713
676,-0.110539,-0.128177,0.165154
677,-0.124758,-0.073841,0.129957
678,-0.005316,-0.029032,0.164321
679,0.324704,-0.003873,0.137439
680,0.670274,0.005118,-0.019565
681,0.809289,0.103052,-0.043572
682,0.598972,0.229921,0.035194
683,0.252547,0.489383,0.084519
684,0.187609,0.512492,0.285343
685,0.070351,0.543366,0.348485
686,-0.333048,0.566188,0.337744
687,-0.651806,0.634334,0.239144
688,-0.646656,0.696433,0.400958
689,-0.610749,0.622259,0.415059
690,-0.372047,0.524739,0.259953
691,0.009346,0.241444,0.209483
692,-0.167551,0.132051,0.162036
693,0.072575,-0.060157,0.069579
694,-0.089306,-0.378742,0.3072
695,-0.150328,-0.413395,0.150685
696,-0.096259,-0.570365,0.283405
697,-0.026092,-0.686628,0.264806
698,0.004698,-0.673815,0.294114
699,0.019523,-0.618236,0.334303
700,0.033101,-0.723644,0.336711
701,0.052053,-0.721216,0.302838
702,0.04867,-0.534639,0.148381
703,0.012773,-0.239938,0.0386
704,-0.188692,0.202934,-0.113378
705,-0.137437,0.510583,-0.133978
706,0.074991,1.393589,-0.389097
707,0.076467,0.214779,-0.390299
708,0.075936,-0.013842,-0.2221
709,0.058624,0.536263,-0.070417
710,-0.275686,0.9188,0.316077
711,-0.482046,1.043227,0.69941
712,-0.238791,0.145057,0.515639
713,-0.42846,-0.275601,0.224444
714,-0.190828,-0.207172,0.358397
715,0.217333,-0.103544,0.488347
716,0.26745,0.345014,0.464202
717,0.045629,0.384052,0.277757
718,-0.061932,0.000265,0.184434
719,-0.090561,-0.310906,0.211048
720,-0.094524,-0.392284,0.240917
721,-0.13162,-0.592214,0.330362
722,-0.157221,-0.397321,0.330195
723,-0.115161,-0.157135,0.211652
724,-0.022764,-0.256618,0.069781
725,0.049465,-0.349169,0.073739
726,0.093756,-0.24795,0.104607
727,0.13903,-0.057999,0.044002
728,0.174897,0.002352,0.015416
729,0.220627,-0.035608,0.002778
730,0.37035,0.012155,-0.084544
731,0.516713,0.092648,-0.143888
732,0.436842,0.319536,0.042734
733,-0.04095,0.605457,0.224082
734,0.114872,0.632349,0.409212
735,0.052849,0.456277,0.291505
736,-0.480052,0.704386,0.139093
737,-0.590602,0.884637,0.200507
738,-0.588759,0.735453,0.391765
739,-0.356541,0.381856,0.272265
740,-0.217136,0.339301,0.230784
741,0.150497,0.142564,0.022068
742,0.338678,-0.277448,0.21055
743,-0.089665,-0.368231,0.099032
744,-0.196422,-0.425903,0.297075
745,-0.206342,-0.668007,0.30332
746,-0.196596,-0.686707,0.227698
747,-0.073473,-0.676582,0.310346
748,0.025701,-0.682417,0.417352
749,0.021472,-0.682078,0.359338
750,0.033556,-0.61615,0.237654
751,-0.002814,-0.416898,0.0505
752,-0.065142,-0.10998,-0.001976
753,-0.20073,0.270815,0.051284
754,0.095577,1.091171,-0.154251
755,-0.066691,1.136657,-0.4673
756,-0.108967,0.212521,-0.302748
757,-0.139776,0.682505,-0.149756
758,-0.03313,1.484391,0.331931
759,-0.343986,1.15168,0.519645
760,-0.48645,-0.191778,0.425182
761,-0.407956,-0.453582,0.308732
762,-0.14244,-0.070558,0.537167
763,0.28902,0.08723,0.616552
764,0.407455,0.22462,0.566765
765,-0.075736,0.291164,0.26499
766,-0.17734,0.241163,0.157089
767,-0.044217,-0.138162,0.202595
768,-0.050239,-0.398892,0.185737
769,-0.062913,-0.493729,0.277047
770,-0.081907,-0.499183,0.352978
771,-0.095088,-0.312585,0.323513
772,-0.020633,-0.27288,0.135076
773,0.00167,-0.407204,0.073461
774,0.02182,-0.411756,0.11065
775,-0.003764,-0.162547,0.160698
776,-0.059137,-0.115818,0.06019
777,-0.013633,-0.081889,0.17624
778,0.487104,0.029583,-0.056967
779,0.656391,0.03355,-0.129489
780,0.665542,0.148573,-0.044382
781,0.200156,0.561085,0.035818
782,0.081242,0.573683,0.07885
783,0.248523,0.601726,0.386538
784,-0.376192,0.470092,0.318309
785,-0.563244,0.567256,0.283662
786,-0.719679,0.966011,0.381741
787,-0.586078,0.69352,0.408138
788,-0.492879,0.484187,0.329852
789,-0.119338,0.338049,0.105788
790,0.181519,-0.012443,0.008396
791,0.096223,-0.200662,0.065875
792,-0.083089,-0.328375,0.184844
793,-0.145589,-0.465564,0.238863
794,-0.135629,-0.689022,0.323474
795,-0.099057,-0.730426,0.331728
796,0.042063,-0.772193,0.340969
797,0.023073,-0.747309,0.361844
798,-0.004124,-0.706331,0.293049
799,0.014811,-0.68671,0.263353
800,0.056697,-0.536865,0.168062
801,0.0636,-0.232786,0.085678
802,-0.127528,0.38308,-0.011554
803,0.096662,1.775015,-0.361539
804,0.092142,1.782809,-0.343358
805,-0.181512,0.186646,-0.423004
806,-0.079175,0.00265,-0.104569
807,-0.110753,0.830767,0.287375
808,-0.501173,1.742994,0.63762
809,-0.563055,0.507372,0.593627
810,-0.568057,-0.360967,0.369113
811,-0.145946,-0.393766,0.276899
812,0.207916,-0.074649,0.553474
813,0.401813,0.046934,0.599484
814,0.167034,0.273302,0.525087
815,-0.255,0.255424,0.245857
816,-0.250847,0.15166,0.172346
817,-0.142676,-0.176721,0.229078
818,-0.13843,-0.339924,0.231705
819,-0.102361,-0.468954,0.273427
820,-0.057652,-0.457064,0.328278
821,-0.034983,-0.248622,0.273865
822,0.01376,-0.253209,0.073594
823,0.057598,-0.372228,0.157771
824,0.031484,-0.160881,0.15205
825,0.04154,-0.031287,0.099588
826,0.019888,-0.084123,0.063751
827,0.054067,-0.124293,0.08427
828,0.125656,-0.070718,0.003696
829,0.502483,0.07914,-0.080641
830,0.559642,0.142743,-0.025718
831,0.396957,0.338113,0.110149
832,-0.032825,0.477506,0.163932
833,0.054437,0.561313,0.343114
834,-0.147554,0.441969,0.277152
835,-0.428956,0.651097,0.200497
836,-0.483406,0.706366,0.305234
837,-0.531857,0.67238,0.400063
838,-0.287743,0.415643,0.225777
839,-0.073959,0.423785,0.072682
840,0.080449,0.193472,0.010172
841,-0.104658,-0.035069,0.103374
842,-0.111165,-0.227633,0.215786
843,-0.167803,-0.307004,0.192344
844,-0.134237,-0.521787,0.292936
845,-0.151651,-0.659849,0.368439
846,-0.11829,-0.793236,0.337722
847,-0.081614,-0.709623,0.305895
848,-0.051425,-0.71929,0.279256
849,0.021976,-0.663938,0.276119
850,0.041955,-0.505892,0.210824
851,0.016701,-0.26743,0.127945
852,-0.021737,-0.075153,0.071979
853,0.064526,1.048621,-0.125659
854,-0.009861,1.376261,-0.395027
855,-0.18433,0.29018,-0.319022
856,-0.259398,0.093963,-0.143266
857,-0.025225,0.820478,0.231962
858,-0.129665,1.26535,0.369487
859,-0.415126,0.568857,0.560884
860,-0.526075,-0.162707,0.358622
861,-0.338099,-0.337182,0.269625
862,0.014072,-0.177961,0.520971
863,0.453879,0.077318,0.576838
864,0.504149,0.191702,0.538263
865,-0.177579,0.280315,0.300078
866,-0.168007,-0.06938,0.269272
867,-0.170282,-0.192951,0.237483
868,-0.144262,-0.426916,0.278621
869,-0.143117,-0.473663,0.331899
870,-0.123391,-0.375079,0.362196
871,-0.065553,-0.145833,0.196789
872,-0.056586,-0.229347,0.098603
873,-0.043319,-0.336519,0.0855
874,-0.058401,-0.128309,0.18643
875,-0.040205,-0.114307,0.118419
876,0.039002,-0.108823,0.010343
877,0.243146,0.023501,-0.01518
878,0.267685,0.025245,-0.021835
879,0.468251,-0.037817,-0.099643
880,0.536938,0.130868,0.00161
881,0.269507,0.454999,0.047567
882,0.065631,0.522229,0.057861
883,0.034281,0.580878,0.294624
884,-0.149985,0.5117,0.315673
885,-0.521494,0.502401,0.253678
886,-0.645983,0.669295,0.401335
887,-0.558183,0.606057,0.508774
888,-0.397739,0.46701,0.357187
889,-0.085351,0.414455,0.165677
890,0.111989,0.212105,-0.022619
891,0.094168,-0.024523,0.062855
892,-0.114167,-0.153398,0.170975
893,-0.147235,-0.270991,0.156062
894,-0.122583,-0.490817,0.272389
895,-0.117176,-0.613133,0.27887
896,-0.055551,-0.737128,0.361797
897,-0.010762,-0.745756,0.378845
898,-0.008056,-0.662068,0.350808
899,0.059088,-0.682572,0.357438
900,0.046552,-0.56646,0.262462
901,-0.014859,-0.299394,0.078319
902,-0.089444,0.038599,0.028736
903,-0.202471,0.720329,-0.066604
904,-0.003851,1.389192,-0.30489
905,-0.120173,0.041546,-0.215148
906,-0.202028,-0.027154,-0.163623
907,-0.157298,0.189447,-0.098851
908,-0.218892,1.583261,0.365935
909,-0.417561,1.113297,0.514455
910,-0.382828,-0.086072,0.297084
911,-0.245982,-0.288619,0.281416
912,-0.063352,-0.248544,0.519401
913,0.47472,-0.008035,0.653649
914,0.106799,0.269071,0.514255
915,0.118706,0.252963,0.478988
916,-0.234209,0.003338,0.240549
917,-0.181757,-0.132289,0.231092
918,-0.147361,-0.331651,0.240029
919,-0.070318,-0.466096,0.355576
920,-0.092093,-0.399781,0.351907
921,-0.067561,-0.215099,0.257244
922,0.056437,-0.300482,0.063224
923,0.081367,-0.313403,0.048684
924,0.083834,-0.230675,0.140537
925,0.043682,-0.113672,0.090878
926,-0.071484,-0.067724,0.012056
927,-0.012301,-0.014437,0.08186
928,0.300228,0.049769,-0.022205
929,0.457593,0.074618,-0.062693
930,0.474725,0.185732,0.047223
931,0.189755,0.369924,0.066438
932,0.016555,0.500562,0.232969
933,0.099934,0.371942,0.340161
934,-0.149754,0.309875,0.383996
935,-0.440116,0.59223,0.295569
936,-0.637855,0.933056,0.403953
937,-0.693008,0.798036,0.449858
938,-0.30133,0.425179,0.279229
939,-0.168359,0.355539,0.151081
940,0.319035,0.16775,0.022067
941,0.149809,-0.046328,0.086133
942,-0.092788,-0.18426,0.146465
943,-0.144881,-0.323207,0.271159
944,-0.152579,-0.518986,0.419724
945,-0.141446,-0.710136,0.412243
946,-0.093923,-0.825942,0.390314
947,-0.09581,-0.708132,0.399189
948,-0.08915,-0.634134,0.327472
949,-0.05472,-0.61412,0.307537
950,-0.024857,-0.450283,0.223234
951,-0.006191,-0.254297,0.144151
952,-0.043361,-0.108354,0.16065
953,0.110391,0.88806,-0.072291
954,0.196649,1.099029,-0.302896
955,-0.110176,0.47184,-0.398537
956,-0.114478,0.535656,-0.067532
957,-0.125387,0.551678,-0.037894
958,-0.310609,1.794911,0.558305
959,-0.335813,-0.070812,0.368515
960,-0.449871,-0.745893,0.301192
961,-0.235439,-0.326091,0.439155
962,0.207517,-0.044381,0.611812
963,0.482315,0.377903,0.649524
964,-0.058241,0.447704,0.308845
965,-0.259862,0.150467,0.067657
966,-0.095832,-0.183166,0.176458
967,-0.019236,-0.431758,0.274482
968,0.001358,-0.493279,0.301321
969,-0.003175,-0.305807,0.337803
970,-0.029831,-0.137154,0.234235
971,-0.035605,-0.20029,0.170934
972,-0.08805,-0.388977,0.100982
973,-0.05527,-0.220357,0.274995
974,-0.02168,-0.130979,0.274022
975,-0.017469,-0.064367,0.142732
976,0.03159,0.055339,0.114629
977,0.104965,0.106996,0.188187
978,0.495696,0.086002,0.020857
979,0.603159,0.17186,0.079485
980,0.38834,0.369529,0.027906
981,0.170717,0.528513,0.218678
982,0.262706,0.564174,0.382622
983,-0.086841,0.489224,0.285347
984,-0.462365,0.494762,0.261441
985,-0.626456,0.678167,0.218873
986,-0.692897,0.654694,0.461264
987,-0.540162,0.442335,0.400954
988,-0.282159,0.454373,0.227338
989,-0.051517,0.241839,0.069629
990,0.006195,-0.050264,0.091211
991,-0.039806,-0.223419,0.155978
992,-0.074416,-0.384429,0.03322
993,-0.064012,-0.418459,0.200232
994,-0.027591,-0.550878,0.319019
995,0.113024,-0.811799,0.36953
996,0.125045,-0.808037,0.381263
997,0.092221,-0.72585,0.344768
998,0.045788,-0.578486,0.221436
999,0.045196,-0.476146,0.154208
1000,0.032425,-0.347392,0.045406
1001,-0.157079,0.397623,0.033773
1002,-0.159159,0.757351,-0.061421
1003,0.003209,1.244222,-0.127825
1004,-0.282655,0.2496,-0.264729
1005,-0.363435,0.242795,-0.204109
1006,0.004176,0.869306,0.18855
1007,-0.227084,1.357415,0.478278
1008,-0.297038,0.578011,0.576648
1009,-0.45357,-0.258602,0.44581
1010,-0.314093,-0.303926,0.347614
1011,-0.02334,-0.145861,0.567846
1012,0.445914,0.164655,0.59424
1013,0.310216,0.227086,0.502005
1014,-0.134099,0.231157,0.256759
1015,-0.096994,-0.082749,0.235699
1016,-0.040958,-0.201253,0.234851
1017,-0.014758,-0.383455,0.280144
1018,-0.045724,-0.486341,0.364644
1019,-0.082598,-0.418963,0.360244
1020,-0.105974,-0.220571,0.249777
1021,-0.060264,-0.245948,0.071066
1022,-0.02643,-0.246147,0.074965
1023,0.090645,-0.03539,0.218071
1024,0.114547,-0.031907,0.169662
1025,0.093901,-0.079594,0.14332
1026,0.108998,-0.026507,0.168968
1027,0.401317,0.07255,0.073399
1028,0.564889,0.110277,0.016171
1029,0.491723,0.159641,0.073538
1030,0.178135,0.42377,0.1386
1031,0.087306,0.458441,0.270932
1032,0.125112,0.444239,0.281884
1033,-0.247932,0.395404,0.323326
1034,-0.470086,0.50384,0.237398
1035,-0.583903,0.703556,0.306741
1036,-0.629427,0.768411,0.398694
1037,-0.456913,0.483209,0.261837
1038,-0.220591,0.360303,0.166291
1039,0.10882,0.142653,0.096976
1040,0.080701,-0.107697,0.173801
1041,-0.159101,-0.230643,0.229893
1042,-0.189778,-0.293608,0.197468
1043,-0.161929,-0.481248,0.306952
1044,-0.081073,-0.614294,0.377474
1045,-0.005657,-0.778543,0.322708
1046,0.012246,-0.583698,0.384258
1047,-0.023639,-0.65857,0.370599
1048,-0.028047,-0.606617,0.29706
1049,0.011461,-0.458123,0.186283
1050,0.028196,-0.237724,-0.000596
1051,-0.036454,-0.060607,-0.001715
1052,0.134585,1.333324,-0.153718
1053,0.164066,1.251784,-0.231975
1054,-0.232225,0.425375,-0.36753
1055,-0.266124,0.352647,-0.165798
1056,0.014084,0.93113,0.291587
1057,-0.442331,1.164853,0.465969
1058,-0.350602,0.567086,0.549743
1059,-0.357142,-0.306302,0.431329
1060,-0.273093,-0.36908,0.334292
1061,0.014299,-0.183428,0.597312
1062,0.299588,0.014445,0.560465
1063,0.128135,0.287933,0.44452
1064,-0.220284,0.100069,0.254096
1065,-0.157415,-0.042633,0.251851
1066,-0.081926,-0.286283,0.304226
1067,-0.073081,-0.379347,0.350062
1068,-0.106492,-0.38051,0.360063
1069,-0.10482,-0.212769,0.292415
1070,-0.055424,-0.23712,0.182038
1071,-0.017529,-0.286187,0.1075
1072,0.010779,-0.252254,0.160036
1073,0.023401,-0.177237,0.154243
1074,-0.026625,-0.125004,0.030529
1075,0.07699,-0.00254,0.049529
1076,0.097041,0.034199,0.09403
1077,0.28808,0.035155,-0.035351
1078,0.513459,0.013299,-0.002094
1079,0.435676,0.139179,0.042354
1080,0.285832,0.424875,0.057602
1081,0.157281,0.44591,0.178139
1082,0.094708,0.522295,0.310368
1083,-0.272024,0.440126,0.345098
1084,-0.590136,0.658489,0.267441
1085,-0.689355,0.92227,0.45669
1086,-0.651908,0.646754,0.499549
1087,-0.388631,0.390765,0.310254
1088,-0.120271,0.331787,0.124009
1089,0.199466,0.130943,-0.038984
1090,0.172137,-0.284965,0.368187
1091,-0.231656,-0.171073,0.180537
1092,-0.250991,-0.298048,0.232423
1093,-0.245033,-0.372949,0.31889
1094,-0.049882,-0.798615,0.380878
1095,-0.040584,-0.792381,0.398148
1096,0.024197,-0.698351,0.41557
1097,0.027735,-0.655094,0.319703
1098,0.03251,-0.608722,0.28919
1099,-0.002359,-0.387765,0.084689
1100,-0.056474,0.090538,0.057497
1101,-0.049627,0.093963,0.065837
1102,0.123127,1.342321,-0.134548
1103,-0.161062,0.950132,-0.400234
1104,-0.247766,0.115285,-0.219539
1105,-0.315955,0.391675,0.003233
1106,-0.050149,1.012509,0.393896
1107,-0.405895,1.126555,0.605942
1108,-0.241214,0.339842,0.500211
1109,-0.371879,-0.322132,0.336892
1110,-0.29081,-0.262174,0.334155
1111,0.239407,0.010844,0.610498
1112,0.317695,0.181611,0.616776
1113,-0.028677,0.364316,0.45513
1114,-0.224827,0.019476,0.232491
1115,-0.143952,-0.082653,0.244174
1116,-0.040139,-0.24688,0.264568
1117,-0.022213,-0.398456,0.295178
1118,-0.077089,-0.44281,0.332768
1119,-0.127581,-0.222352,0.320087
1120,-0.109817,-0.158655,0.167897
1121,-0.074852,-0.307022,0.105645
1122,0.00074,-0.273291,0.145378
1123,-0.030387,-0.14098,0.166311
1124,0.026664,-0.05775,0.091131
1125,0.051719,-0.06765,0.072748
1126,0.055534,-0.062793,0.053788
1127,0.254255,0.011183,-0.029381
1128,0.405224,0.048244,-0.019725
1129,0.411877,0.289484,0.108194
1130,0.169223,0.577317,0.123085
1131,0.11872,0.570693,0.293343
1132,0.108899,0.570328,0.321691
1133,-0.377437,0.439571,0.264316
1134,-0.538427,0.492894,0.242253
1135,-0.534474,0.666286,0.395705
1136,-0.447216,0.539796,0.427527
1137,-0.235721,0.367635,0.278601
1138,-0.065,0.313452,0.126474
1139,0.03316,0.248608,0.096559
1140,0.079805,-0.11711,0.133531
1141,-0.139989,-0.270076,0.239894
1142,-0.231408,-0.358963,0.32457
1143,-0.244561,-0.418404,0.379938
1144,-0.20372,-0.665142,0.412809
1145,-0.027794,-0.748326,0.431985
1146,-0.035858,-0.627513,0.413185
1147,-0.003518,-0.612566,0.312819
1148,0.05072,-0.554098,0.265078
1149,0.046025,-0.385802,0.122225
1150,-0.022526,-0.098757,0.035946
1151,-0.073073,0.314582,0.035868
1152,0.085873,1.068837,-0.142505
1153,-0.052037,0.990847,-0.324465
1154,-0.050158,0.101646,-0.273953
1155,-0.052256,-0.009173,-0.095345
1156,0.177598,0.743093,0.321042
1157,-0.301813,1.192416,0.624982
1158,-0.563567,0.858681,0.555093
1159,-0.522978,0.321545,0.415953
1160,-0.3844,-0.240297,0.242824
1161,-0.24236,-0.184632,0.428921
1162,0.322321,-0.005329,0.661006
1163,0.134091,0.345906,0.506676
1164,-0.125945,0.241115,0.268072
1165,-0.112647,-0.077598,0.205438
1166,-0.112746,-0.288066,0.244279
1167,-0.114626,-0.394224,0.319035
1168,-0.131059,-0.421407,0.411136
1169,-0.157834,-0.281368,0.386042
1170,-0.101351,-0.192993,0.227503
1171,-0.028483,-0.244049,0.096141
1172,-0.019857,-0.331644,0.13839
1173,0.029668,-0.197317,0.216257
1174,0.019728,-0.076474,0.020192
1175,0.043742,-0.053698,-0.029923
1176,0.11354,-0.017927,0.100387
1177,0.312914,0.023415,-0.027861
1178,0.554578,0.055652,-0.010605
1179,0.49385,0.259458,0.114528
1180,0.307865,0.49852,0.27407
1181,0.106508,0.617115,0.372992
1182,0.006781,0.661724,0.351498
1183,-0.565182,0.582062,0.280391
1184,-0.760424,0.661828,0.290947
1185,-0.613727,0.59513,0.466236
1186,-0.437536,0.435786,0.468928
1187,-0.365066,0.448311,0.424343
1188,-0.028672,0.401694,0.153384
1189,0.02486,0.184371,0.070324
1190,-0.030084,-0.066555,0.143988
1191,-0.195996,-0.22369,0.202292
1192,-0.221853,-0.405841,0.389365
1193,-0.168969,-0.391018,0.293919
1194,-0.131337,-0.63769,0.333392
1195,0.065017,-0.823094,0.405061
1196,0.034341,-0.677334,0.406631
1197,0.027144,-0.672201,0.366745
1198,0.066117,-0.670833,0.34004
1199,0.079102,-0.41215,0.140322
1200,0.074786,-0.24835,0.030557
1201,-0.097536,0.357948,-0.039719
1202,-0.021779,1.216796,-0.195009
1203,-0.161479,1.04403,-0.348929
1204,-0.094941,-0.066994,-0.350767
1205,-0.100123,0.002564,-0.030039
1206,-0.057905,0.371752,0.131702
1207,-0.129978,0.927243,0.685045
1208,-0.68334,1.603128,0.769412
1209,-0.56721,0.513354,0.423492
1210,-0.524802,-0.451264,0.147181
1211,-0.215835,-0.325916,0.446746
1212,0.289599,-0.294743,0.619461
1213,0.437185,0.238593,0.618294
1214,-0.029602,0.360711,0.342453
1215,-0.078072,0.098634,0.225207
1216,-0.081573,-0.121744,0.190025
1217,-0.2113,-0.403248,0.288718
1218,-0.253515,-0.475688,0.326848
1219,-0.238031,-0.328519,0.371451
1220,-0.213743,-0.182054,0.302247
1221,-0.059725,-0.273976,0.116879
1222,-0.015162,-0.31887,0.138622
1223,5.60E-05,-0.184058,0.22084
1224,0.059617,-0.055944,0.122168
1225,0.17179,0.028128,0.02427
1226,0.188646,0.04617,0.075706
1227,0.225436,-0.037735,-0.026432
1228,0.532266,0.048204,-0.055224
1229,0.531979,0.201503,0.003754
1230,0.351141,0.583689,0.027544
1231,0.056347,0.509049,0.178492
1232,0.061921,0.522884,0.419961
1233,-0.054028,0.476761,0.399789
1234,-0.569578,0.615532,0.294966
1235,-0.600358,0.780578,0.442003
1236,-0.639635,0.658123,0.527356
1237,-0.455337,0.485899,0.35073
1238,-0.223217,0.376188,0.193047
1239,0.080856,0.154835,0.066613
1240,0.201796,-0.110929,0.082498
1241,-0.027609,-0.305522,0.219129
1242,-0.184628,-0.405096,0.286763
1243,-0.182699,-0.467574,0.361998
1244,-0.082266,-0.752119,0.35174
1245,-0.037946,-0.776505,0.393679
1246,-0.002005,-0.682167,0.41798
1247,0.072132,-0.653298,0.335953
1248,0.085898,-0.655191,0.334117
1249,0.037452,-0.352619,0.147963
1250,-0.039001,-0.036269,0.01828
1251,-0.173606,0.491686,-0.059814
1252,0.033649,1.423435,-0.142607
1253,-0.151446,0.816072,-0.294901
1254,-0.164712,0.209252,-0.320201
1255,-0.040314,0.404507,0.088347
1256,-0.07315,1.069635,0.444955
1257,-0.584831,1.523405,0.663996
1258,-0.622341,0.357832,0.425076
1259,-0.515846,-0.461441,0.259314
1260,-0.400992,-0.438438,0.248759
1261,0.251148,-0.224134,0.691723
1262,0.435251,0.186224,0.674497
1263,-0.037919,0.448685,0.423487
1264,-0.12404,0.015521,0.177024
1265,-0.084135,-0.160503,0.178763
1266,-0.085066,-0.392104,0.241072
1267,-0.093471,-0.582309,0.404824
1268,-0.11915,-0.509358,0.436354
1269,-0.149284,-0.106187,0.238862
1270,-0.093017,-0.213486,0.059464
1271,-0.082433,-0.303685,0.104111
1272,0.008228,-0.172061,0.196549
1273,0.07398,-0.100312,0.132871
1274,0.11543,-0.107638,-0.003701
1275,0.137032,-0.026095,0.019666
1276,0.268289,0.024959,0.022168
1277,0.469587,0.070817,-0.002175
1278,0.468774,0.111275,0.02175
1279,0.385905,0.204743,0.106187
1280,-0.083057,0.516425,0.142201
1281,0.027701,0.442511,0.420115
1282,-0.145458,0.42646,0.389081
1283,-0.459845,0.577086,0.325275
1284,-0.545306,0.92033,0.379212
1285,-0.749279,0.932873,0.485417
1286,-0.355192,0.440093,0.213403
1287,-0.236665,0.36925,0.167359
1288,0.085662,0.156971,0.076746
1289,0.041527,-0.146955,0.144604
1290,-0.230861,-0.206797,0.189914
1291,-0.308784,-0.211557,0.242879
1292,-0.224176,-0.594759,0.399695
1293,-0.216717,-0.589395,0.415864
1294,-0.034613,-0.847217,0.388365
1295,-0.051708,-0.708874,0.391982
1296,0.004196,-0.725631,0.376216
1297,0.061196,-0.729603,0.346875
1298,0.058146,-0.467729,0.202584
1299,0.011183,-0.287245,0.173784
1300,-0.052395,-0.047965,0.130085
1301,-0.074411,1.266421,-0.171719
1302,-0.088862,1.51404,-0.35944
1303,-0.116006,0.111483,-0.347985
1304,0.077885,-0.107189,-0.099473
1305,0.072466,0.779401,0.268936
1306,-0.468908,1.499757,0.621087
1307,-0.586503,1.044901,0.61177
1308,-0.660948,-0.103946,0.306982
1309,-0.247504,-0.341548,0.483672
1310,0.239874,-0.291788,0.672763
1311,0.407631,-0.097582,0.671884
1312,-0.080297,0.41592,0.430899
1313,-0.224012,0.213392,0.210538
1314,-0.168784,-0.003719,0.197718
1315,-0.09477,-0.391896,0.290815
1316,-0.102717,-0.47899,0.29798
1317,-0.129077,-0.545385,0.379266
1318,-0.226679,-0.188353,0.315013
1319,-0.17511,-0.171833,0.216655
1320,-0.044745,-0.361274,0.079067
1321,0.01253,-0.240841,0.156779
1322,0.049244,-0.054215,0.132674
1323,0.063717,-0.012881,0.074904
1324,0.051289,-0.011566,0.002978
1325,0.133969,0.01893,0.053485
1326,0.439633,0.065048,-0.071989
1327,0.547259,0.098516,0.059004
1328,0.401642,0.47186,0.097374
1329,0.119494,0.596563,0.286726
1330,0.11155,0.658157,0.402355
1331,-0.299018,0.602767,0.310613
1332,-0.64371,0.715828,0.206515
1333,-0.752599,0.830239,0.448068
1334,-0.612268,0.524839,0.542214
1335,-0.509905,0.403231,0.462629
1336,-0.178606,0.401023,0.181614
1337,0.075436,0.198053,0.082327
1338,0.146831,-0.098037,0.118627
1339,-0.018075,-0.215801,0.20251
1340,-0.232494,-0.483213,0.290904
1341,-0.21937,-0.530485,0.329499
1342,-0.171855,-0.642404,0.373975
1343,-0.018462,-0.694531,0.351855
1344,-0.00506,-0.660797,0.358192
1345,0.015133,-0.677759,0.342249
1346,0.0753,-0.573243,0.221751
1347,0.06906,-0.434374,0.120198
1348,0.047538,-0.293001,0.00844
1349,-0.092253,0.282022,-0.030178
1350,-0.036983,1.037921,-0.134524
1351,-0.044219,1.230119,-0.278291
1352,-0.368961,0.278681,-0.136202
1353,-0.346915,0.592007,0.048048
1354,-0.580347,1.478588,0.700749
1355,-0.719886,0.572445,0.42574
1356,-0.642316,0.019074,0.492876
1357,-0.338081,-0.158496,0.435349
1358,0.085552,0.018947,0.697755
1359,0.358229,0.086839,0.666993
1360,-0.009672,0.337218,0.503962
1361,-0.235726,0.275765,0.341181
1362,-0.205028,0.072317,0.208661
1363,-0.067345,-0.289052,0.248523
1364,-0.039405,-0.409338,0.286004
1365,-0.082206,-0.491152,0.375991
1366,-0.143946,-0.348289,0.382293
1367,-0.148586,-0.217529,0.233099
1368,-0.139452,-0.266972,0.149488
1369,-0.113713,-0.45245,0.149628
1370,-0.076732,-0.2665,0.183031
1371,-0.002023,-0.164691,0.058285
1372,0.074519,-0.144101,0.018581
1373,0.202854,0.072395,0.099889
1374,0.331779,0.117568,-0.000591
1375,0.449105,0.142754,0.000188
1376,0.362746,0.276778,0.077829
1377,0.091958,0.501661,0.144365
1378,0.174413,0.557367,0.297257
1379,-0.035097,0.537289,0.312835
1380,-0.341953,0.522198,0.306249
1381,-0.879108,1.040361,0.368401
1382,-0.840551,0.932069,0.587992
1383,-0.66162,0.727181,0.54615
1384,-0.243211,0.475664,0.134078
1385,0.039643,0.390272,0.005503
1386,0.183186,0.036553,0.046421
1387,-0.031303,-0.249338,0.193695
1388,-0.210209,-0.402356,0.250302
1389,-0.270307,-0.58019,0.415695
1390,-0.24313,-0.923518,0.451522
1391,-0.177527,-0.864034,0.41765
1392,-0.149299,-0.794594,0.420821
1393,-0.119404,-0.771484,0.400488
1394,-0.078967,-0.625503,0.25639
1395,-0.060498,-0.521226,0.143315
1396,-0.062434,-0.399623,0.024279
1397,-0.049537,0.054633,-0.069757
1398,0.083283,0.799329,-0.158611
1399,0.148597,1.181014,-0.272827
1400,0.032449,0.443719,-0.222044
1401,-0.370232,0.692434,0.152227
1402,-0.41518,1.644133,0.441595
1403,-0.73448,0.941534,0.36088
1404,-0.671788,-0.360575,0.485316
1405,-0.534367,-0.312117,0.35398
1406,-0.07776,-0.062602,0.524873
1407,0.397426,0.333708,0.684914
1408,0.283716,0.531935,0.464457
1409,-0.220761,0.368727,0.156507
1410,-0.125378,0.018433,0.129115
1411,0.016355,-0.229936,0.264998
1412,0.038115,-0.37256,0.298279
1413,0.011835,-0.458665,0.355875
1414,-0.113769,-0.540971,0.392364
1415,-0.203209,-0.363111,0.336763
1416,-0.232103,-0.286574,0.210739
1417,-0.238933,-0.45929,0.160929
1418,-0.241446,-0.450853,0.257658
1419,-0.182224,-0.273337,0.193198
1420,-0.077809,-0.094009,0.139762
1421,0.101317,0.056932,0.155582
1422,0.118212,0.114938,0.168065
1423,0.197109,0.146489,-0.004351
1424,0.451897,0.15543,0.051038
1425,0.41579,0.244304,0.150569
1426,-0.005211,0.464698,0.08201
1427,0.136442,0.481444,0.290322
1428,0.090842,0.463205,0.350688
1429,-0.426825,0.562769,0.248421
1430,-0.671089,1.001907,0.273782
1431,-0.850396,0.980324,0.572479
1432,-0.534661,0.601049,0.433049
1433,-0.331545,0.523562,0.1024
1434,-0.065455,0.355209,0.052831
1435,0.089832,-0.0229,0.063022
1436,-0.084994,-0.325067,0.188123
1437,-0.319145,-0.385158,0.267358
1438,-0.358506,-0.524023,0.329086
1439,-0.110556,-0.764371,0.404387
1440,-0.154838,-0.844415,0.328575
1441,-0.026981,-0.743584,0.390896
1442,-0.004212,-0.722956,0.316232
1443,0.020333,-0.736952,0.311864
1444,0.025678,-0.529459,0.140214
1445,-0.020274,-0.216272,0.045848
1446,-0.095567,0.36479,-0.063261
1447,0.046267,1.322693,-0.090185
1448,-0.052086,1.283546,-0.282778
1449,-0.212714,0.02377,-0.306163
1450,-0.098997,-0.142375,-0.043477
1451,-0.298103,0.509586,0.257598
1452,-0.67891,1.770644,0.773706
1453,-0.900772,1.365986,0.673315
1454,-0.591859,-0.00898,0.334327
1455,-0.207787,-0.406131,0.320378
1456,0.036696,-0.138229,0.600564
1457,0.315651,0.142872,0.557075
1458,-0.058148,0.373906,0.575683
1459,-0.439222,0.290918,0.339796
1460,-0.28354,0.037043,0.193454
1461,-0.150529,-0.114706,0.22253
1462,-0.058943,-0.317963,0.312979
1463,-0.047063,-0.472246,0.361972
1464,-0.042839,-0.508982,0.42124
1465,-0.101796,-0.294611,0.193149
1466,-0.095306,-0.411154,0.079358
1467,-0.133689,-0.46164,0.099689
1468,-0.16352,-0.267205,0.026005
1469,-0.123546,-0.121145,0.082241
1470,-0.022004,-0.181261,0.000615
1471,-0.000428,0.004876,0.039013
1472,0.152379,0.11082,-0.003232
1473,0.355989,0.069931,-0.017506
1474,0.261719,0.203454,0.110553
1475,-0.160701,0.540356,0.168135
1476,0.030891,0.562069,0.306579
1477,-0.037187,0.549341,0.335738
1478,-0.471869,0.684792,0.227432
1479,-0.60803,0.961316,0.355546
1480,-0.715936,1.091835,0.581302
1481,-0.436902,0.627153,0.271862
1482,-0.454878,0.570905,0.172978
1483,-0.056561,0.302769,0.006007
1484,0.008593,0.012162,0.033662
1485,-0.209446,-0.250119,0.172532
1486,-0.340241,-0.214889,0.180673
1487,-0.254728,-0.429053,0.362704
1488,-0.246061,-0.539718,0.329643
1489,-0.095298,-0.761699,0.378249
1490,-0.129268,-0.868365,0.346789
1491,-0.120759,-0.859222,0.37906
1492,-0.075909,-0.864877,0.36922
1493,-0.065703,-0.856976,0.324629
1494,-0.077229,-0.543488,0.28557
1495,-0.187375,-0.105071,0.157304
1496,-0.24142,0.660577,-0.174633
1497,-0.134471,2.056976,-0.287957
1498,-0.715798,0.707142,-0.151722
1499,-0.561215,1.388834,0.096025
1500,-0.438119,1.751561,0.326616
1501,-0.284526,-0.124065,0.235771
1502,-0.362413,-0.634724,0.394758
1503,-0.184295,0.076174,0.464642
1504,0.070711,0.400699,0.609646
1505,-0.032845,0.225701,0.695551
1506,-0.232274,0.11464,0.527574
1507,-0.46226,0.087479,0.200057
1508,-0.251286,0.051886,0.243231
1509,-0.116153,0.055966,0.27101
1510,-0.077451,-0.092517,0.303026
1511,-0.084945,-0.174757,0.326523
1512,-0.130492,-0.387989,0.389285
1513,-0.142542,-0.400629,0.30656
1514,-0.136795,-0.395211,0.209465
1515,-0.145077,-0.41267,0.104814
1516,-0.264891,-0.265793,0.098046
1517,-0.217599,-0.181255,0.061469
1518,-0.168638,-0.108603,-0.012429
1519,-0.063849,-0.04479,0.025568
1520,0.000461,-0.045107,-0.012489
1521,0.054874,-0.047034,0.035419
1522,0.276802,-0.064031,-0.059104
1523,0.313133,0.010888,-0.027374
1524,0.239313,0.136696,0.016433
1525,-0.016867,0.524807,0.207925
1526,0.039561,0.696188,0.2756
1527,-0.177319,0.662218,0.279947
1528,-0.686146,0.646487,0.277497
1529,-0.985557,0.867435,0.261241
1530,-1.025649,0.784474,0.475649
1531,-0.779345,0.567768,0.430084
1532,-0.222106,0.505315,0.046705
1533,-0.05986,0.446481,0.040315
1534,0.01504,-0.052099,0.05874
1535,-0.240195,-0.348461,0.194615
1536,-0.309343,-0.350291,0.186471
1537,-0.356744,-0.578758,0.190457
1538,-0.231938,-0.743973,0.252438
1539,-0.085183,-0.811448,0.280654
1540,-0.066808,-0.840752,0.29585
1541,-0.137463,-0.86353,0.256554
1542,-0.132675,-0.804138,0.161217
1543,-0.08383,-0.75429,0.153373
1544,-0.062058,-0.358641,0.048162
1545,-0.281626,0.109122,-0.218318
1546,-0.492017,0.422471,-0.174638
1547,-0.203084,0.842396,-0.466963
1548,-0.160905,0.178213,-0.248284
1549,-0.271962,0.084075,-0.209016
1550,-0.525212,1.738578,0.206346
1551,-0.61445,1.64591,0.334593
1552,-0.593488,-0.160632,0.481008
1553,-0.544746,-0.36011,0.365073
1554,-0.460665,-0.113948,0.380016
1555,0.023897,0.11423,0.624583
1556,-0.059695,0.324012,0.49862
1557,-0.233196,0.268034,0.405435
1558,-0.297589,0.101268,0.269487
1559,-0.230086,-0.055581,0.268322
1560,-0.254559,-0.136586,0.216082
1561,-0.253914,-0.426385,0.205381
1562,-0.269085,-0.572967,0.299686
1563,-0.241032,-0.545968,0.311918
1564,-0.147311,-0.243216,0.179996
1565,-0.146465,-0.33636,0.023981
1566,-0.257544,-0.313884,-0.002937
1567,-0.358201,-0.121217,0.013451
1568,-0.325562,0.024053,0.122624
1569,-0.118492,0.004436,0.183193
1570,0.103893,0.044197,-0.035552
1571,0.133331,-0.0389,-0.199021
1572,0.201304,0.036436,-0.114067
1573,0.235707,0.167401,-0.074471
1574,0.162805,0.355004,-0.003373
1575,-0.025231,0.453952,-0.01179
1576,-0.064762,0.51751,0.235427
1577,-0.196909,0.370398,0.274785
1578,-0.422828,0.372854,0.140967
1579,-0.439063,0.722739,0.165767
1580,-0.751045,0.9328,0.346342
1581,-0.658752,0.819857,0.371509
1582,-0.244459,0.364221,0.065795
1583,-0.044914,0.266687,-0.048372
1584,0.052132,-0.005868,-0.02281
1585,-0.196479,-0.188587,0.092748
1586,-0.388892,-0.251524,0.183999
1587,-0.373939,-0.40014,0.312585
1588,-0.304147,-0.637029,0.342793
1589,-0.196132,-0.902487,0.306075
1590,-0.167992,-0.91393,0.363757
1591,-0.145603,-0.815825,0.357507
1592,-0.078871,-0.796736,0.319993
1593,-0.031212,-0.712908,0.288328
1594,-0.088758,-0.413535,0.111042
1595,-0.190433,0.026444,-0.005859
1596,-0.276243,0.361638,-0.169591
1597,-0.097077,1.752128,-0.449793
1598,-0.410021,0.401013,-0.047565
1599,-0.411378,1.374483,0.328447
1600,-0.310888,2.191663,0.455995
1601,-0.702566,0.014512,0.378967
1602,-0.618024,-0.745167,0.43488
1603,-0.252366,-0.148394,0.495272
1604,0.058499,-0.068238,0.597427
1605,0.419414,0.349229,0.702084
1606,-0.195204,0.480458,0.311914
1607,-0.383922,0.169171,0.102656
1608,-0.174602,-0.145428,0.267363
1609,-0.138996,-0.347273,0.300388
1610,-0.166622,-0.446664,0.316953
1611,-0.191024,-0.495633,0.299088
1612,-0.252098,-0.538545,0.295399
1613,-0.244844,-0.275421,0.111222
1614,-0.182079,-0.43359,0.074698
1615,-0.075096,-0.460783,0.135272
1616,-0.06323,-0.275381,0.160476
1617,-0.234234,-0.205329,0.234304
1618,-0.374827,-0.003628,0.223246
1619,-0.107276,0.214227,0.196769
1620,0.133328,0.059656,-0.074884
1621,0.278134,0.053512,-0.122936
1622,0.300512,0.260014,0.168076
1623,0.275699,0.50443,0.163355
1624,0.388874,0.629307,0.430811
1625,0.009577,0.597987,0.247871
1626,-0.442739,0.652134,0.209431
1627,-0.821803,0.734166,0.246048
1628,-0.735097,0.643384,0.502458
1629,-0.582147,0.367544,0.464587
1630,-0.353949,0.428018,0.248501
1631,0.034746,0.293843,0.058976
1632,0.068027,0.153384,0.070347
1633,0.04684,0.030631,0.151184
1634,-0.306806,-0.261764,0.225561
1635,-0.294911,-0.335059,0.238366
1636,-0.297513,-0.421198,0.275896
1637,-0.167516,-0.81335,0.249297
1638,-0.186212,-0.775717,0.299957
1639,-0.198825,-0.682768,0.354418
1640,-0.088153,-0.783481,0.351867
1641,-0.01083,-0.755454,0.426241
1642,-0.023435,-0.462626,0.262678
1643,-0.111757,-0.104558,0.180251
1644,-0.175478,0.130604,0.091178
1645,-0.154546,1.531724,-0.366155
1646,-0.189019,1.578424,-0.39051
1647,-0.264353,0.095079,-0.177467
1648,-0.06647,0.707266,0.195144
1649,-0.226333,1.877207,0.349563
1650,-0.246035,1.887768,0.361635
1651,-0.599081,-0.285108,0.503059
1652,-0.483927,-0.303511,0.296901
1653,-0.354611,-0.159236,0.410429
1654,0.246134,0.097811,0.691778
1655,0.155111,0.335261,0.516923
1656,-0.103879,0.312503,0.393823
1657,-0.205174,0.088552,0.242127
1658,-0.1248,-0.176548,0.278142
1659,-0.157504,-0.385517,0.267083
1660,-0.173566,-0.461324,0.324496
1661,-0.185175,-0.404637,0.428535
1662,-0.190434,-0.184985,0.356751
1663,-0.150098,-0.253455,0.110176
1664,-0.12415,-0.396344,0.013002
1665,-0.139802,-0.382141,0.13233
1666,-0.124255,-0.279944,0.125244
1667,-0.119591,-0.107,0.079287
1668,-0.094397,-0.102082,0.034446
1669,-0.022003,-0.076421,0.047763
1670,0.383926,0.033025,-0.151627
1671,0.395214,0.031753,-0.162045
1672,0.383176,0.428973,0.128663
1673,0.162632,0.587028,0.368302
1674,0.096131,0.622092,0.469201
1675,-0.201549,0.701264,0.271927
1676,-0.885517,0.894429,0.276553
1677,-0.923856,0.910951,0.427957
1678,-0.829561,0.649863,0.589081
1679,-0.45488,0.510013,0.376867
1680,-0.195633,0.462945,0.317629
1681,-0.041952,0.353521,0.224234
1682,-0.131111,-0.165159,0.166031
1683,-0.186869,-0.217475,0.169933
1684,-0.259266,-0.236566,0.236078
1685,-0.268593,-0.56532,0.135439
1686,-0.282773,-0.590564,0.250354
1687,-0.144638,-0.828482,0.387567
1688,-0.165987,-0.679077,0.367143
1689,-0.109032,-0.672212,0.39679
1690,-0.016352,-0.655359,0.364786
1691,-0.0215,-0.554667,0.294504
1692,-0.008303,-0.33641,0.104044
1693,-0.11578,0.306228,-0.092855
1694,-0.060153,0.705629,-0.206338
1695,0.109166,1.433895,-0.306308
1696,-0.378658,0.247053,-0.146949
1697,-0.26649,0.768936,0.073413
1698,-0.365097,1.770334,0.342267
1699,-0.498409,0.904771,0.501063
1700,-0.604834,0.14346,0.48445
1701,-0.608589,-0.517826,0.436866
1702,-0.218533,0.064618,0.624084
1703,0.173986,0.022784,0.595021
1704,0.240822,0.089802,0.571718
1705,-0.167279,0.428485,0.25667
1706,-0.183814,0.332682,0.203348
1707,-0.102511,-0.041539,0.267636
1708,-0.168689,-0.445397,0.287838
1709,-0.205461,-0.483457,0.34948
1710,-0.225253,-0.427916,0.408683
1711,-0.194525,-0.218874,0.353383
1712,-0.156093,-0.25964,0.15193
1713,-0.161256,-0.492447,0.077142
1714,-0.159691,-0.43878,0.189163
1715,-0.140957,-0.155993,0.147906
1716,-0.071011,0.051067,0.11242
1717,-0.025639,0.048595,0.08415
1718,0.008674,0.189827,0.075998
1719,0.05252,0.118739,0.024258
1720,0.465028,0.085556,-0.110573
1721,0.428135,0.216575,-0.015283
1722,0.217729,0.360884,0.036443
1723,-0.046798,0.441806,0.229454
1724,-0.099673,0.409785,0.378874
1725,-0.379812,0.481894,0.351651
1726,-0.68968,0.815322,0.35368
1727,-0.768011,0.877364,0.523844
1728,-0.66463,0.724859,0.490145
1729,-0.284426,0.462689,0.247874
1730,-0.076903,0.314528,0.007328
1731,-0.123494,0.195492,0.06709
1732,-0.084466,0.074133,0.0849
1733,-0.241825,-0.335105,0.308483
1734,-0.244998,-0.325289,0.333121
1735,-0.247587,-0.517809,0.291846
1736,-0.182702,-0.923759,0.493549
1737,-0.143192,-0.933632,0.482973
1738,-0.122206,-0.897096,0.489061
1739,-0.111486,-0.717518,0.352476
1740,-0.121648,-0.668475,0.345429
1741,-0.098604,-0.402387,0.177601
1742,-0.138294,-0.089505,0.148798
1743,-0.146037,0.530338,-0.081742
1744,0.037803,1.481329,-0.362545
1745,-0.292174,0.873895,-0.273859
1746,-0.366019,0.381533,-0.158053
1747,-0.121505,1.335433,0.173846
1748,-0.501264,0.73696,0.383248
1749,-0.563375,0.152284,0.422835
1750,-0.382616,-0.022257,0.542316
1751,-0.193838,0.284566,0.631543
1752,-0.038808,0.230227,0.653611
1753,0.06267,-0.106942,0.555719
1754,-0.18711,0.228543,0.340938
1755,-0.249569,0.30727,0.255391
1756,-0.057065,0.015988,0.285058
1757,-0.087137,-0.383782,0.269009
1758,-0.106292,-0.506719,0.276228
1759,-0.162141,-0.627091,0.388229
1760,-0.225543,-0.439737,0.37867
1761,-0.256853,-0.291961,0.316795
1762,-0.215336,-0.278496,0.083663
1763,-0.188317,-0.315367,0.110549
1764,-0.126875,-0.149777,0.129567
1765,-0.023208,-0.070267,0.094674
1766,-0.045454,-0.045713,0.143728
1767,0.035748,0.056419,0.082085
1768,0.261977,-0.048801,-0.08472
1769,0.491501,0.08828,0.067088
1770,0.360824,0.223454,0.20484
1771,-0.046924,0.48205,0.103727
1772,-0.090747,0.570939,0.250642
1773,-0.253178,0.47606,0.242199
1774,-0.392121,0.486222,0.334787
1775,-0.613067,0.963553,0.348802
1776,-0.643566,0.975582,0.392544
1777,-0.556042,0.868219,0.407275
1778,-0.177872,0.5057,0.124363
1779,0.009635,0.393486,0.095376
1780,0.10969,0.054506,0.080359
1781,-0.239333,-0.276169,0.27123
1782,-0.293676,-0.378025,0.340016
1783,-0.35217,-0.484716,0.367736
1784,-0.329934,-0.716438,0.456282
1785,-0.233258,-0.978636,0.4823
1786,-0.176767,-0.926314,0.498024
1787,-0.192693,-0.76508,0.5155
1788,-0.127237,-0.701744,0.420417
1789,-0.115861,-0.640826,0.346339
1790,-0.155954,-0.416675,0.185121
1791,-0.193167,-0.089287,-0.010485
1792,-0.18641,0.988468,-0.343334
1793,-0.034943,1.408902,-0.260341
1794,-0.197795,0.762478,-0.207731
1795,-0.260108,0.344231,-0.005714
1796,-0.509436,1.238764,-0.029838
1797,-0.684315,2.449886,0.412866
1798,-0.377269,-0.342815,0.500956
1799,-0.229824,-0.732885,0.480628
1800,-0.223866,-0.270772,0.383472
1801,0.165285,0.15835,0.728966
1802,0.072359,0.345132,0.637883
1803,-0.454134,0.440402,0.276518
1804,-0.296396,0.264852,0.117561
1805,-0.039786,-0.050924,0.277281
1806,-0.050787,-0.295337,0.263437
1807,-0.10972,-0.490825,0.327172
1808,-0.173439,-0.617436,0.403945
1809,-0.142594,-0.44103,0.386289
1810,-0.150972,-0.279196,0.200149
1811,-0.164492,-0.432222,0.028211
1812,-0.199268,-0.423136,0.185906
1813,-0.164363,-0.179072,0.113711
1814,-0.010765,-0.037684,0.008561
1815,0.081148,0.00809,-0.023361
1816,0.056992,0.117777,0.047703
1817,0.166558,0.025681,-0.047561
1818,0.279752,0.005575,-0.06373
1819,0.229902,0.166386,0.14914
1820,-0.177467,0.481354,0.103549
1821,-0.345354,0.534911,0.249943
1822,-0.127224,0.635572,0.422981
1823,-0.490167,0.531605,0.279147
1824,-0.689466,0.668103,0.212688
1825,-0.940701,0.972954,0.500153
1826,-0.483423,0.624803,0.443706
1827,-0.100332,0.357219,0.121445
1828,-0.077171,0.39348,0.151182
1829,-0.120696,0.127313,0.005596
1830,-0.16549,-0.212701,0.119353
1831,-0.351753,-0.391944,0.2415
1832,-0.44055,-0.450799,0.415627
1833,-0.334793,-0.407026,0.348299
1834,-0.22918,-0.683391,0.508854
1835,-0.164852,-0.798313,0.379559
1836,-0.117597,-0.868252,0.394153
1837,-0.128859,-0.850468,0.333394
1838,-0.159576,-0.663469,0.217311
1839,-0.154624,-0.504398,0.138
1840,-0.167713,-0.288957,0.055979
1841,-0.179051,0.616003,-0.02319
1842,0.012758,1.433943,-0.169933
1843,-0.294157,0.756215,-0.345382
1844,-0.595483,0.42321,-0.247825
1845,-0.490153,1.249598,0.036363
1846,-0.506554,2.338531,0.543504
1847,-0.423445,0.213777,0.354189
1848,-0.434358,-0.746992,0.483277
1849,-0.191786,-0.07571,0.576575
1850,0.147905,0.020959,0.658513
1851,0.128123,0.345017,0.690311
1852,-0.332539,0.327441,0.401581
1853,-0.415539,0.132237,0.197313
1854,-0.3179,-0.097258,0.24722
1855,-0.281642,-0.297747,0.277797
1856,-0.22022,-0.455958,0.341756
1857,-0.198798,-0.421512,0.413571
1858,-0.149018,-0.158685,0.368192
1859,-0.104852,-0.179478,0.127487
1860,-0.063854,-0.326685,-0.022823
1861,-0.12454,-0.32164,0.047822
1862,-0.101065,-0.106531,-0.008577
1863,-0.061647,-0.087502,-0.116203
1864,-0.08683,-0.222331,0.086999
1865,-0.02493,-0.005777,-0.018332
1866,0.186333,-0.001162,-0.117135
1867,0.312627,0.005268,-0.118479
1868,0.20908,0.321658,0.193188
1869,-0.176554,0.616788,0.181166
1870,-0.04759,0.75615,0.328546
1871,-0.364859,0.550664,0.296468
1872,-0.650382,0.559298,0.297562
1873,-0.985934,0.939214,0.361361
1874,-0.872603,0.738567,0.463898
1875,-0.723328,0.507504,0.412875
1876,-0.067029,0.381787,0.034948
1877,0.138641,0.29015,-0.206241
1878,-0.011835,-0.001391,0.073885
1879,-0.132569,-0.244606,0.11809
1880,-0.32811,-0.339429,0.227493
1881,-0.431971,-0.519416,0.263517
1882,-0.346713,-0.644371,0.37281
1883,-0.189042,-0.813923,0.341302
1884,-0.07525,-0.87203,0.382663
1885,-0.04359,-0.882188,0.373862
1886,-0.026777,-0.758611,0.336587
1887,-0.010349,-0.537008,0.212885
1888,-0.008006,-0.21251,0.085283
1889,-0.140422,0.333678,-0.036966
1890,-0.312536,1.128994,-0.234435
1891,-0.274479,1.630047,-0.417562
1892,-0.587442,0.455392,-0.188717
1893,-0.493506,1.690686,0.47022
1894,-0.244184,1.483325,0.41363
1895,-0.292902,-0.385246,0.534137
1896,-0.392855,-0.851921,0.664595
1897,-0.076706,0.030032,0.623023
1898,0.223901,0.377779,0.720392
1899,0.050239,0.37189,0.578406
1900,-0.311698,0.492884,0.09782
1901,-0.355651,0.386858,-0.019989
1902,-0.10109,0.065915,0.172082
1903,-0.013728,-0.384177,0.285721
1904,-0.122105,-0.584122,0.304544
1905,-0.238308,-0.690723,0.367001
1906,-0.312784,-0.363784,0.350482
1907,-0.319267,-0.163258,0.244869
1908,-0.245978,-0.453456,0.226733
1909,-0.193703,-0.536209,0.271546
1910,-0.086838,-0.287221,0.219119
1911,-0.166895,-0.118188,0.181429
1912,-0.184276,-0.129091,0.251603
1913,0.033827,0.08154,0.235046
1914,0.217597,0.107931,0.099956
1915,0.570645,0.245345,0.00202
1916,0.46937,0.300136,0.112186
1917,0.36566,0.364151,0.124593
1918,0.143736,0.463228,0.352994
1919,0.024914,0.461713,0.397015
1920,-0.245446,0.380652,0.440912
1921,-0.757638,1.01654,0.261346
1922,-0.968773,1.190603,0.547033
1923,-0.886278,0.98361,0.512951
1924,-0.32142,0.41009,0.185983
1925,-0.090209,0.332638,0.128809
1926,0.140939,0.076469,0.130963
1927,0.045065,-0.139341,0.227756
1928,-0.270291,-0.314637,0.369116
1929,-0.400651,-0.319902,0.408366
1930,-0.320693,-0.73042,0.417971
1931,-0.184392,-0.927329,0.392599
1932,-0.117864,-0.948957,0.410643
1933,-0.068278,-0.728587,0.375242
1934,0.008638,-0.719474,0.431947
1935,-0.009474,-0.50493,0.307839
1936,-0.085858,-0.102156,0.130029
1937,-0.157059,0.478128,0.018431
1938,0.102067,1.465564,-0.196055
1939,-0.219998,1.056986,-0.327718
1940,-0.419703,0.180855,-0.227971
1941,-0.145511,0.649552,0.054806
1942,-0.136546,1.761906,0.551109
1943,-0.359751,1.465102,0.683112
1944,-0.531448,-0.355878,0.586482
1945,-0.460525,-0.46222,0.408996
1946,-0.093279,0.151505,0.660337
1947,0.204493,0.253264,0.636107
1948,-0.244838,0.45058,0.438235
1949,-0.30357,0.353796,0.293333
1950,-0.073844,-0.093153,0.271887
1951,-0.035372,-0.32799,0.285932
1952,-0.064929,-0.520076,0.373407
1953,-0.103804,-0.5913,0.403762
1954,-0.217325,-0.343317,0.40723
1955,-0.2178,-0.301243,0.246314
1956,-0.174113,-0.44248,0.157111
1957,-0.150395,-0.326981,0.249724
1958,-0.095916,-0.143504,0.245316
1959,-0.12682,-0.154235,0.081576
1960,-0.095963,-0.133342,0.063298
1961,0.299393,0.145755,0.18084
1962,0.443003,0.093944,0.0584
1963,0.529288,0.146392,0.076113
1964,0.302717,0.409716,0.175409
1965,0.205036,0.504213,0.299384
1966,-0.055895,0.569622,0.420333
1967,-0.484578,0.669276,0.324657
1968,-0.937676,0.735404,0.327068
1969,-1.015253,0.813616,0.354527
1970,-0.821067,0.711052,0.51392
1971,-0.710305,0.64642,0.507759
1972,-0.226585,0.602671,0.228357
1973,-0.031147,0.321501,0.13716
1974,0.055584,0.133248,0.18176
1975,-0.395817,-0.195974,0.136288
1976,-0.366409,-0.22964,0.241748
1977,-0.336527,-0.335064,0.33349
1978,-0.244489,-0.616446,0.364963
1979,-0.196544,-0.773398,0.42655
1980,-0.123695,-0.788398,0.425246
1981,-0.16304,-0.76272,0.428156
1982,-0.070819,-0.795372,0.443671
1983,-0.029948,-0.721419,0.385261
1984,-0.053507,-0.399449,0.108657
1985,-0.131387,0.245717,-0.150293
1986,-0.160117,0.602008,-0.288372
1987,-0.009757,1.106225,-0.242418
1988,-0.137019,0.098396,-0.182718
1989,-0.275448,0.049828,-0.270447
1990,-0.204343,0.382427,0.005906
1991,-1.075075,1.060387,0.635617
1992,-1.406457,1.782727,0.330479
1993,-0.193602,0.047133,0.623232
1994,-0.221018,-0.403978,0.550642
1995,-0.221654,-0.620433,0.455
1996,0.233544,0.089637,0.639204
1997,-0.12558,0.544002,0.662564
1998,-0.379475,0.571794,0.520133
1999,-0.431484,0.005532,0.195508
2000,-0.297775,-0.236471,0.258495
2001,-0.231181,-0.308556,0.312033
2002,-0.115143,-0.513311,0.455227
2003,-0.090162,-0.442626,0.471917
2004,-0.100643,-0.290251,0.39025
2005,-0.200792,-0.278797,0.075155
2006,-0.235623,-0.352982,0.207121
2007,-0.229435,-0.308599,0.269341
2008,-0.180199,-0.226643,0.042933
2009,0.002392,0.021595,0.032374
2010,0.085632,0.142829,0.052771
2011,0.135567,0.051345,-0.015689
2012,0.346263,0.128746,-0.091211
2013,0.282105,0.219314,0.071573
2014,0.068784,0.558834,0.020559
2015,0.039927,0.571363,0.359579
2016,0.081006,0.531057,0.460531
2017,-0.429771,0.439898,0.332279
2018,-0.722222,0.600157,0.216621
2019,-0.875537,0.721355,0.262422
2020,-0.820937,0.680189,0.479213
2021,-0.381862,0.430282,0.26316
2022,-0.161877,0.372494,0.162495
2023,0.143504,0.149722,0.03249
2024,-0.17858,-0.173824,0.153498
2025,-0.298563,-0.270593,0.211204
2026,-0.359456,-0.247083,0.217535
2027,-0.310014,-0.66774,0.28687
2028,-0.236368,-0.747038,0.355556
2029,-0.184196,-0.805525,0.348114
2030,-0.196279,-0.598984,0.386693
2031,-0.193579,-0.614998,0.360471
2032,-0.162018,-0.636694,0.324468
2033,-0.027594,-0.509901,0.178664
2034,-0.03162,-0.37058,0.147102
2035,-0.056787,-0.246156,0.146555
2036,-0.259757,0.89485,-0.179614
2037,-0.140185,1.550041,-0.321421
2038,-0.255924,0.343252,-0.471932
2039,-0.231069,-0.014489,-0.156878
2040,-0.285493,0.230863,0.169075
2041,-0.609298,2.279512,0.824435
2042,-0.695889,2.643865,0.728999
2043,-0.562003,-0.067258,0.51325
2044,-0.373165,-0.645321,0.333269
2045,0.097113,-0.202126,0.764507
2046,0.264546,-0.042912,0.747471
2047,-0.236585,0.674171,0.565858
2048,-0.502128,0.374507,0.175858
2049,-0.351829,0.153563,0.129181
2050,-0.21002,-0.271112,0.287965
2051,-0.197822,-0.54626,0.383834
2052,-0.230783,-0.651395,0.445168
2053,-0.217628,-0.216746,0.423962
2054,-0.222365,-0.145956,0.123423
2055,-0.172296,-0.268825,0.050052
2056,-0.218745,-0.449792,0.20496
2057,-0.181468,-0.290161,0.108012
2058,-0.157539,-0.078199,0.038687
2059,-0.066125,0.1196,0.11262
2060,0.044666,0.157929,0.052074
2061,0.182239,0.098729,-0.077265
2062,0.378657,0.092128,-0.111514
2063,0.220359,0.413446,0.008645
2064,0.223088,0.41185,-0.010404
2065,0.034836,0.459227,0.488305
2066,-0.231429,0.470791,0.462865
2067,-0.521561,0.422636,0.395647
2068,-0.932062,1.018693,0.347176
2069,-1.042072,0.978588,0.546883
2070,-0.733355,0.559478,0.460278
2071,-0.291721,0.342864,0.216669
2072,0.104803,0.288998,0.027482
2073,0.217616,0.206172,0.030289
2074,-0.155884,-0.158126,0.100856
2075,-0.32248,-0.372066,0.224016
2076,-0.347267,-0.463512,0.303172
2077,-0.351966,-0.536112,0.368384
2078,-0.196712,-0.849267,0.380849
2079,-0.164116,-0.819802,0.414809
2080,-0.176904,-0.726218,0.377182
2081,-0.114042,-0.685533,0.338429
2082,-0.122329,-0.5875,0.239083
2083,-0.138642,-0.149251,0.180613
2084,-0.238454,0.342044,0.084781
2085,-0.212029,0.711785,0.055836
2086,-0.299433,1.244814,-0.382605
2087,-0.547451,0.366672,-0.14647
2088,-0.610301,0.350135,-0.067233
2089,-0.410565,1.94574,0.562651
2090,-0.383203,1.236787,0.508102
2091,-0.435531,-0.034247,0.39759
2092,-0.393946,-0.582585,0.3325
2093,-0.081403,-0.162844,0.611263
2094,0.26744,0.191013,0.664966
2095,0.248292,0.567743,0.695092
2096,-0.376057,0.314235,0.337077
2097,-0.391829,0.087667,0.190402
2098,-0.239326,-0.055981,0.278068
2099,-0.240091,-0.218445,0.271723
2100,-0.241062,-0.430861,0.308736
2101,-0.222083,-0.498673,0.418326
2102,-0.16346,-0.288279,0.37716
2103,-0.156381,-0.302079,0.226636
2104,-0.169239,-0.417586,0.132911
2105,-0.175841,-0.308044,0.206058
2106,-0.14769,-0.248105,0.200349
2107,-0.153442,-0.100861,0.05092
2108,-0.108468,0.049167,0.020772
2109,-0.056716,0.111761,0.092094
2110,0.276895,0.043223,-0.025804
2111,0.421331,0.086754,0.002563
2112,0.374565,0.096712,0.05215
2113,0.022062,0.468858,0.258359
2114,-0.073782,0.609237,0.471995
2115,-0.229902,0.580982,0.415859
2116,-0.672626,0.61228,0.366908
2117,-0.907818,0.817599,0.319139
2118,-0.832811,0.834485,0.502409
2119,-0.763932,0.704124,0.504701
2120,-0.097012,0.447327,0.134956
2121,-0.022227,0.36736,0.101942
2122,0.01515,0.287991,0.068538
2123,-0.254795,-0.181881,0.133893
2124,-0.288895,-0.215246,0.136016
2125,-0.343875,-0.262379,0.219933
2126,-0.332898,-0.602994,0.379439
2127,-0.26486,-0.768147,0.394113
2128,-0.157236,-0.8076,0.414838
2129,-0.132575,-0.716499,0.410585
2130,-0.09337,-0.685032,0.410652
2131,-0.07836,-0.473426,0.354248
2132,-0.103501,-0.194247,0.209332
2133,-0.136254,-0.004165,0.141331
2134,-0.332743,0.87887,-0.054239
2135,-0.298358,1.55255,-0.371477
2136,-0.356492,1.092333,-0.395893
2137,-0.210072,-0.067061,-0.071527
2138,-0.091635,0.466794,0.076958
2139,-0.003324,0.9358,0.40057
2140,-0.462094,1.412081,0.702399
2141,-0.599561,-0.05187,0.542413
2142,-0.445266,-0.406838,0.311882
2143,-0.264617,-0.140855,0.542275
2144,0.149559,0.030515,0.661141
2145,0.226304,0.340131,0.713738
2146,-0.279837,0.378381,0.451206
2147,-0.383309,0.10871,0.2851
2148,-0.267621,-0.158715,0.299313
2149,-0.23959,-0.358561,0.306898
2150,-0.231498,-0.538857,0.378885
2151,-0.29511,-0.472772,0.453458
2152,-0.304363,-0.242042,0.366305
2153,-0.231551,-0.266437,0.176674
2154,-0.194957,-0.305785,0.154785
2155,-0.027772,-0.133572,0.208139
2156,0.051902,-0.05097,0.17043
2157,0.048041,-0.005641,0.065753
2158,-0.062583,0.082262,-0.001812
2159,0.105275,-0.056744,0.116857
2160,0.453833,0.016956,-0.040635
2161,0.454058,0.042874,-0.056116
2162,0.128491,0.420507,0.144236
2163,-0.097512,0.489429,0.230673
2164,-0.102484,0.637995,0.541693
2165,-0.46921,0.501981,0.45155
2166,-0.693735,0.507003,0.449938
2167,-0.854458,0.735208,0.310934
2168,-0.846796,0.652383,0.454282
2169,-0.736445,0.514775,0.421243
2170,-0.408423,0.388454,0.239685
2171,-0.053417,0.379829,0.107908
2172,-0.063482,0.388832,0.130866
2173,-0.128378,-0.151981,0.257397
2174,-0.253743,-0.328413,0.249049
2175,-0.281797,-0.452473,0.394531
2176,-0.292707,-0.611833,0.388281
2177,-0.208691,-0.767421,0.419321
2178,-0.15566,-0.812968,0.449633
2179,-0.152897,-0.665514,0.447226
2180,-0.182679,-0.600852,0.367009
2181,-0.156642,-0.554597,0.329331
2182,-0.186274,-0.35774,0.216294
2183,-0.198026,-0.020988,0.132813
2184,-0.311299,0.468539,0.04522
2185,-0.051714,1.568068,-0.341978
2186,-0.25173,0.498616,-0.364109
2187,-0.236183,0.11169,-0.223839
2188,-0.056493,0.845365,0.217485
2189,-0.461583,1.530947,0.573447
2190,-0.558577,1.376497,0.663105
2191,-0.448223,-0.184572,0.445257
2192,-0.464419,-0.309462,0.429569
2193,-0.417839,-0.219666,0.422566
2194,0.161638,-0.03034,0.600949
2195,0.085644,0.195266,0.594697
2196,-0.229051,0.192759,0.452487
2197,-0.253578,0.041499,0.317158
2198,-0.234623,-0.148935,0.279262
2199,-0.277253,-0.312064,0.28475
2200,-0.299602,-0.460455,0.340439
2201,-0.293659,-0.38606,0.431118
2202,-0.277652,-0.20265,0.38244
2203,-0.233748,-0.194261,0.246918
2204,-0.153186,-0.255486,0.161053
2205,-0.134506,-0.220364,0.199608
2206,-0.0671,-0.088538,0.10591
2207,-0.054463,0.001579,-0.05213
2208,-0.051086,0.028108,0.014369
2209,0.01406,0.003889,0.105232
2210,0.380317,0.021603,-0.007805
2211,0.387941,0.019196,-0.022217
2212,0.130243,0.396149,0.087545
2213,-0.201478,0.579831,0.244624
2214,-0.148677,0.588181,0.41173
2215,-0.27519,0.507658,0.413325
2216,-0.677355,0.571132,0.339323
2217,-0.778159,0.718622,0.306885
2218,-0.902878,0.797815,0.542954
2219,-0.65167,0.435949,0.419495
2220,-0.47324,0.351555,0.309886
2221,0.146584,0.228341,0.044356
2222,0.030406,-0.01068,0.108827
2223,-0.140529,-0.145883,0.133417
2224,-0.272914,-0.290209,0.269999
2225,-0.321408,-0.59856,0.414844
2226,-0.375405,-0.537698,0.363854
2227,-0.254422,-0.775097,0.393001
2228,-0.190665,-0.719642,0.379433
2229,-0.151045,-0.665352,0.384749
2230,-0.110366,-0.595034,0.363145
2231,-0.10366,-0.406201,0.270743
2232,-0.127596,-0.10881,0.171023
2233,-0.256087,0.292318,0.048433
2234,-0.212696,1.137947,-0.235195
2235,-0.145868,1.282323,-0.379748
2236,-0.326671,0.279853,-0.241374
2237,-0.117922,0.375445,-0.076385
2238,-0.302969,1.337519,0.376296
2239,-0.657315,1.718833,0.615008
2240,-0.592482,1.185444,0.61264
2241,-0.608634,-0.236821,0.453145
2242,-0.324444,-0.183621,0.514127
2243,0.099538,-0.099552,0.617272
2244,0.289219,0.12681,0.654172
2245,-0.224104,0.256013,0.504811
2246,-0.48663,0.139459,0.333616
2247,-0.394336,-0.053688,0.304681
2248,-0.318702,-0.294043,0.320665
2249,-0.258558,-0.558442,0.400401
2250,-0.28054,-0.61871,0.42297
2251,-0.27434,-0.171308,0.461523
2252,-0.207834,-0.096803,0.149754
2253,-0.198423,-0.178391,0.097179
2254,-0.133742,-0.219586,0.176892
2255,-0.108451,-0.13709,0.099501
2256,-0.085725,-0.100772,-0.00795
2257,0.061441,0.027986,0.007655
2258,0.020863,0.032172,-0.030635
2259,0.029797,-0.00487,0.003193
2260,0.402575,-0.018146,0.001918
2261,0.273248,0.226683,0.039812
2262,0.143987,0.388662,0.070017
2263,-0.132048,0.650152,0.395452
2264,-0.173847,0.546872,0.444597
2265,-0.538812,0.540962,0.3816
2266,-0.782062,0.824393,0.333831
2267,-0.856084,0.839286,0.505908
2268,-0.675457,0.530204,0.448633
2269,-0.419989,0.406659,0.294744
2270,-0.170003,0.366109,0.13915
2271,-0.199822,0.207101,0.199215
2272,-0.123182,-0.056722,0.10556
2273,-0.278467,-0.307401,0.254494
2274,-0.323463,-0.318874,0.312173
2275,-0.329212,-0.442754,0.366473
2276,-0.263181,-0.689847,0.336813
2277,-0.23202,-0.699937,0.353591
2278,-0.191552,-0.702963,0.396769
2279,-0.141041,-0.642136,0.408911
2280,-0.094773,-0.612966,0.406293
2281,-0.042464,-0.450409,0.341103
2282,-0.216335,0.044272,0.115741
2283,-0.275284,0.278835,0.055387
2284,-0.451631,0.652297,0.019645
2285,-0.520739,0.639528,-0.340099
2286,-0.432149,0.183033,-0.1793
2287,-0.223536,0.079838,-0.084099
2288,-0.065571,0.856695,0.35132
2289,-0.296097,1.422384,0.395653
2290,-0.508978,0.958157,0.656895
2291,-0.360308,-0.363954,0.47296
2292,-0.247562,-0.29783,0.402034
2293,0.099412,-0.156695,0.554499
2294,0.256779,0.284482,0.601617
2295,-0.188405,0.380183,0.516056
2296,-0.406863,0.135603,0.385725
2297,-0.405904,-0.076469,0.327891
2298,-0.413921,-0.163265,0.291972
2299,-0.274657,-0.451714,0.393419
2300,-0.246454,-0.449873,0.416435
2301,-0.23349,-0.337358,0.388242
2302,-0.128852,-0.109049,0.171918
2303,-0.118627,-0.165332,0.100571
2304,-0.128743,-0.300538,0.142089
2305,-0.156156,-0.21414,0.19055
2306,-0.139838,-0.121568,0.055641
2307,-0.12418,-0.016929,-0.012087
2308,-0.102251,-0.012903,0.126589
2309,0.022584,-0.059772,0.12462
2310,0.172745,-0.026928,-0.032527
2311,0.258841,0.115602,0.007139
2312,0.082732,0.383789,0.092795
2313,-0.194972,0.494829,0.236854
2314,0.00941,0.564643,0.455202
2315,-0.436585,0.474383,0.391619
2316,-0.628256,0.565438,0.348453
2317,-0.769139,0.701598,0.36239
2318,-0.764828,0.583465,0.533699
2319,-0.77944,0.593195,0.560215
2320,-0.199525,0.356261,0.180098
2321,-0.035531,0.379281,0.072531
2322,-0.081776,0.353729,0.066243
2323,-0.152445,0.002936,0.132582
2324,-0.325821,-0.27545,0.294287
2325,-0.324474,-0.26666,0.317344
2326,-0.295732,-0.409549,0.250371
2327,-0.218621,-0.742952,0.438089
2328,-0.176283,-0.753471,0.421265
2329,-0.23737,-0.743444,0.423974
2330,-0.187074,-0.644616,0.356265
2331,-0.139359,-0.626397,0.338769
2332,-0.139005,-0.434891,0.297659
2333,-0.178159,-0.111306,0.257359
2334,-0.328547,0.425531,0.196694
2335,-0.329641,1.448318,-0.286721
2336,-0.391148,0.471582,-0.361821
2337,-0.215636,0.12968,-0.171799
2338,0.102556,0.680464,0.054606
2339,-0.275007,1.69419,0.447881
2340,-0.377791,1.567719,0.557743
2341,-0.571275,-0.450765,0.528991
2342,-0.521571,-0.327706,0.365444
2343,-0.422074,-0.199458,0.43314
2344,0.083699,0.167798,0.64938
2345,0.142296,0.372908,0.641169
2346,-0.065379,0.351703,0.538533
2347,-0.387085,0.121137,0.2926
2348,-0.334398,-0.063485,0.271567
2349,-0.319184,-0.152777,0.252743
2350,-0.202051,-0.337184,0.322741
2351,-0.139875,-0.373981,0.39733
2352,-0.155783,-0.300164,0.380446
2353,-0.191189,-0.237175,0.176295
2354,-0.239397,-0.341071,0.128746
2355,-0.231323,-0.266891,0.232143
2356,-0.213286,-0.105371,0.247473
2357,-0.225384,-0.040607,0.090643
2358,-0.168196,0.004201,-0.004419
2359,0.006056,0.068921,0.153276
2360,0.258945,0.001058,0.105155
2361,0.433484,0.020426,0.033787
2362,0.302284,0.167536,0.029355
2363,-0.126776,0.423739,0.162166
2364,-0.096526,0.4215,0.213064
2365,-0.025341,0.45625,0.406537
2366,-0.613387,0.448274,0.401062
2367,-0.647064,0.458426,0.438382
2368,-0.86151,0.856719,0.450718
2369,-0.821117,0.697134,0.523604
2370,-0.66863,0.545073,0.453556
2371,-0.209191,0.44757,0.144415
2372,-0.120965,0.22507,0.056045
2373,-0.105162,0.130581,0.083628
2374,-0.165076,-0.134125,0.218618
2375,-0.362289,-0.447092,0.40421
2376,-0.346399,-0.553453,0.507016
2377,-0.33449,-0.520516,0.450138
2378,-0.138633,-0.790154,0.456396
2379,-0.116948,-0.791907,0.461174
2380,-0.144473,-0.73941,0.442051
2381,-0.201949,-0.609462,0.325111
2382,-0.180847,-0.548499,0.268757
2383,-0.228626,-0.208466,0.104225
2384,-0.286314,0.168545,0.061397
2385,-0.292099,1.019593,-0.109298
2386,-0.096744,1.610039,-0.345265
2387,-0.207546,0.337201,-0.173258
2388,-0.156356,0.583329,-0.044021
2389,-0.189827,1.140362,0.210151
2390,-0.539068,0.801068,0.587865
2391,-0.530709,0.303611,0.536752
2392,-0.519538,-0.066848,0.503809
2393,-0.365138,0.039251,0.567758
2394,-0.219655,0.111775,0.631013
2395,0.055741,0.156871,0.583237
2396,-0.257156,0.193801,0.497328
2397,-0.355155,0.172481,0.42577
2398,-0.264375,0.025572,0.33354
2399,-0.24892,-0.160911,0.260588
2400,-0.238782,-0.323564,0.278676
2401,-0.236527,-0.408789,0.378675
2402,-0.176763,-0.260893,0.369556
2403,-0.211506,-0.272156,0.208329
2404,-0.221359,-0.302436,0.1612
2405,-0.248533,-0.209234,0.200093
2406,-0.244616,-0.113441,0.193805
2407,-0.154089,-0.047681,0.024365
2408,-0.01526,0.012664,0.022341
2409,0.006554,0.034763,0.053809
2410,0.176927,-0.035497,0.036736
2411,0.283863,0.083328,-0.043473
2412,0.249768,0.15813,-0.030843
2413,-0.173136,0.465813,0.095674
2414,-0.101737,0.553529,0.385688
2415,-0.011176,0.577941,0.467451
2416,-0.424074,0.427262,0.333726
2417,-0.732204,0.607438,0.220401
2418,-0.823694,0.726726,0.337789
2419,-0.710916,0.567801,0.476416
2420,-0.354698,0.399494,0.314249
2421,-0.21127,0.392292,0.211398
2422,-0.129266,0.363858,0.023136
2423,-0.142228,0.126378,0.092032
2424,-0.231847,-0.006755,0.17556
2425,-0.378277,-0.32685,0.330227
2426,-0.351774,-0.535268,0.436723
2427,-0.330619,-0.531041,0.376487
2428,-0.239923,-0.777602,0.451013
2429,-0.142753,-0.843824,0.444517
2430,-0.124456,-0.753667,0.427535
2431,-0.157749,-0.678164,0.37669
2432,-0.164733,-0.539995,0.285045
2433,-0.2145,-0.190111,0.156584
2434,-0.297941,0.232706,0.029009
2435,-0.31801,1.053301,-0.107112
2436,-0.112547,1.601369,-0.299252
2437,-0.302111,0.264168,-0.20423
2438,-0.395262,0.161919,-0.075054
2439,-0.156348,1.122936,0.150047
2440,-0.475153,1.794434,0.392333
2441,-0.513148,0.186883,0.564966
2442,-0.499392,-0.39117,0.479722
2443,-0.415084,-0.126414,0.457568
2444,-0.006221,-0.004156,0.63247
2445,0.1689,0.126075,0.638666
2446,-0.143627,0.304179,0.469218
2447,-0.323462,0.16879,0.336554
2448,-0.321452,0.078299,0.300269
2449,-0.330487,-0.211497,0.284315
2450,-0.329275,-0.350848,0.302212
2451,-0.315683,-0.387717,0.329443
2452,-0.23453,-0.25299,0.394678
2453,-0.190967,-0.16897,0.329403
2454,-0.161086,-0.221494,0.176467
2455,-0.156532,-0.339382,0.160715
2456,-0.17284,-0.218414,0.188077
2457,-0.213517,-0.103741,0.112253
2458,-0.225261,-0.075903,0.011037
2459,-0.111597,0.049763,0.144282
2460,-0.053388,0.082586,0.148481
2461,0.26671,0.079309,-0.016596
2462,0.291246,0.194556,0.031679
2463,0.258071,0.387761,0.133804
2464,0.069194,0.570238,0.346036
2465,-0.100267,0.57582,0.315615
2466,-0.350917,0.577042,0.348262
2467,-0.948501,0.822241,0.296968
2468,-0.918592,0.692648,0.502416
2469,-0.813739,0.540825,0.551731
2470,-0.310632,0.498853,0.275873
2471,-0.068625,0.558293,0.098153
2472,-0.124229,0.462286,0.143706
2473,-0.17967,0.057098,0.182807
2474,-0.280571,-0.180061,0.210723
2475,-0.309772,-0.238294,0.2536
2476,-0.347793,-0.540962,0.347956
2477,-0.286837,-0.74969,0.318152
2478,-0.259951,-0.772394,0.380479
2479,-0.22724,-0.728707,0.421413
2480,-0.119295,-0.740573,0.421397
2481,-0.107392,-0.742936,0.422968
2482,-0.1041,-0.497556,0.349675
2483,-0.187794,-0.137003,0.218603
2484,-0.334031,0.272358,0.052649
2485,-0.428048,0.6733,-0.143281
2486,-0.411906,0.646181,-0.386007
2487,-0.197552,0.066273,-0.309597
2488,-0.095719,-0.024843,-0.115451
2489,-0.063084,1.465616,0.197984
2490,-0.338647,1.734597,0.457621
2491,-0.664946,0.262693,0.516049
2492,-0.58125,-0.436485,0.428347
2493,-0.45029,-0.383322,0.39568
2494,0.008275,-0.052385,0.617773
2495,0.243691,0.250781,0.73337
2496,0.062832,0.47344,0.608358
2497,-0.424151,0.282198,0.321265
2498,-0.328072,-0.040079,0.264538
2499,-0.319749,-0.192576,0.250202
2500,-0.276337,-0.454595,0.319201
2501,-0.262045,-0.501103,0.402735
2502,-0.256206,-0.419207,0.41309
2503,-0.222005,-0.080369,0.259435
2504,-0.202573,-0.277779,0.10396
2505,-0.201976,-0.362716,0.096623
2506,-0.184232,-0.198735,0.19067
2507,-0.213383,-0.121301,0.132327
2508,-0.225876,-0.164544,0.070899
2509,-0.185903,0.023597,0.197049
2510,-0.052143,0.056998,0.043928
2511,0.09293,0.037436,-0.038675
2512,0.260373,0.462471,0.267914
2513,0.153878,0.53663,0.40196
2514,0.132388,0.54306,0.340034
2515,-0.128027,0.63357,0.276697
2516,-0.665989,0.684523,0.17966
2517,-0.898329,0.830807,0.236013
2518,-0.960141,0.772456,0.552609
2519,-0.631059,0.490389,0.405796
2520,-0.382135,0.439422,0.28526
2521,0.040106,0.428203,0.010211
2522,-0.139053,0.182003,0.06621
2523,-0.249734,-0.101321,0.209139
2524,-0.35331,-0.307308,0.218417
2525,-0.406178,-0.479943,0.2638
2526,-0.405732,-0.553895,0.345952
2527,-0.31621,-0.73929,0.343735
2528,-0.244557,-0.734304,0.383267
2529,-0.231348,-0.732639,0.427582
2530,-0.113426,-0.720915,0.408459
2531,-0.112217,-0.605104,0.379501
2532,-0.085267,-0.478685,0.314951
2533,-0.211249,0.136669,0.150881
2534,-0.425449,1.474101,-0.275564
2535,-0.421422,1.699235,-0.437786
2536,-0.446365,0.023935,-0.176016
2537,-0.311389,0.276428,-0.095867
2538,-0.134291,0.750807,0.193536
2539,-0.359599,1.998235,0.655445
2540,-0.492906,0.001032,0.478171
2541,-0.570395,-0.508763,0.468848
2542,-0.429313,-0.180851,0.45565
2543,-0.059038,-0.149391,0.62928
2544,0.131953,0.09981,0.66102
2545,-0.124144,0.465054,0.584517
2546,-0.411801,0.232829,0.330356
2547,-0.42013,0.082145,0.280951
2548,-0.398489,-0.220376,0.290526
2549,-0.365354,-0.346151,0.346432
2550,-0.299747,-0.396897,0.432235
2551,-0.229242,-0.176106,0.419738
2552,-0.208808,-0.091649,0.313779
2553,-0.191881,-0.144425,0.129558
2554,-0.211465,-0.321739,0.136774
2555,-0.195843,-0.167898,0.159365
2556,-0.178587,-0.086438,0.110835
2557,-0.20507,-0.073281,0.006387
2558,-0.200443,-0.089257,0.035783
2559,-0.133503,0.020458,0.113641
2560,0.227,0.013582,-0.03729
2561,0.30418,0.159696,-0.035623
2562,0.234643,0.273273,0.068846
2563,-0.271124,0.587131,0.110587
2564,-0.008913,0.424699,0.350427
2565,-0.107285,0.330212,0.389838
2566,-0.529442,0.429694,0.322115
2567,-0.74071,0.890998,0.309603
2568,-0.873226,0.993658,0.457418
2569,-0.635457,0.489222,0.453895
2570,-0.29579,0.325454,0.167135
2571,-0.141463,0.364752,0.07364
2572,-0.152632,0.126859,0.0726
2573,-0.208332,-0.074157,0.161423
2574,-0.295369,-0.166293,0.258971
2575,-0.378841,-0.429911,0.392874
2576,-0.334973,-0.606029,0.460775
2577,-0.323851,-0.599645,0.481578
2578,-0.172326,-0.797312,0.419168
2579,-0.191021,-0.721134,0.365267
2580,-0.194611,-0.673277,0.343386
2581,-0.209932,-0.519083,0.240734
2582,-0.228891,-0.025176,0.112669
2583,-0.221013,-0.025343,0.115993
2584,-0.321231,1.041295,-0.006757
2585,-0.104765,1.513449,-0.196437
2586,-0.489305,0.890159,-0.380481
2587,-0.514458,0.411115,-0.175497
2588,-0.214022,1.453475,0.334905
2589,-0.214494,1.466024,0.353777
2590,-0.408965,0.432195,0.544854
2591,-0.509059,-0.31072,0.502108
2592,-0.504568,-0.316031,0.495998
2593,-0.095219,-0.035485,0.732055
2594,0.22095,0.113769,0.668961
2595,0.231772,0.095013,0.641355
2596,-0.392422,0.264395,0.279366
2597,-0.349614,0.012794,0.24452
2598,-0.347183,-0.139436,0.236588
2599,-0.249764,-0.4892,0.331903
2600,-0.232506,-0.491323,0.409932
2601,-0.236276,-0.350462,0.408738
2602,-0.225788,-0.172151,0.200055
2603,-0.208546,-0.253651,0.112512
2604,-0.172653,-0.262667,0.136137
2605,-0.145736,-0.005257,0.163777
2606,-0.184478,-0.073875,0.07662
2607,-0.222577,-0.123573,0.013114
2608,-0.050139,0.048423,0.231279
2609,0.275169,0.015594,0.057082
2610,0.34721,0.036298,-0.002063
2611,0.215086,0.371182,0.153705
2612,-0.109745,0.632237,0.207989
2613,-0.119803,0.641827,0.296467
2614,-0.170662,0.433391,0.371828
2615,-0.60794,0.401724,0.404201
2616,-0.772836,0.57121,0.363289
2617,-0.848433,0.812318,0.504823
2618,-0.846639,0.671554,0.539277
2619,-0.488163,0.356787,0.362799
2620,-0.063608,0.288325,0.044479
2621,-0.117019,-0.031769,0.142589
2622,-0.126388,-0.021157,0.164623
2623,-0.375242,-0.307645,0.280634
2624,-0.380939,-0.443706,0.391193
2625,-0.375637,-0.435172,0.414044
2626,-0.235326,-0.641632,0.425991
2627,-0.110497,-0.719611,0.431311
2628,-0.11367,-0.706574,0.437628
2629,-0.139978,-0.618414,0.345206
2630,-0.156262,-0.528041,0.29301
2631,-0.190264,-0.424391,0.265213
2632,-0.275282,0.239941,0.136411
2633,-0.310215,0.592554,0.04216
2634,-0.328693,1.036014,0.013896
2635,-0.510307,0.472476,-0.225952
2636,-0.618939,0.421301,-0.179016
2637,-0.260532,1.250366,0.234287
2638,-0.504861,1.679672,0.542424
2639,-0.466004,0.414137,0.422264
2640,-0.448064,-0.266622,0.418459
2641,-0.35064,-0.251894,0.440526
2642,0.037738,-0.054701,0.652507
2643,0.178479,0.136207,0.651865
2644,-0.185575,0.274973,0.464118
2645,-0.442536,0.207589,0.348468
2646,-0.427925,0.127185,0.329845
2647,-0.335824,-0.168449,0.334104
2648,-0.313873,-0.302069,0.349709
2649,-0.301684,-0.397978,0.441744
2650,-0.286285,-0.236356,0.460366
2651,-0.237815,-0.214378,0.29911
2652,-0.204924,-0.339898,0.145432
2653,-0.180505,-0.336123,0.246035
2654,-0.216461,-0.192476,0.188832
2655,-0.186643,-0.032585,0.070794
2656,-0.120568,0.046785,0.035286
2657,-0.038384,0.100282,0.096411
2658,-0.01558,0.064466,0.052029
2659,0.322284,0.049856,-0.04591
2660,0.31724,0.213811,0.073987
2661,0.226234,0.354506,0.059621
2662,-0.110579,0.54585,0.32723
2663,-0.046992,0.606373,0.456982
2664,-0.244237,0.523756,0.425027
2665,-0.791239,0.777828,0.303457
2666,-0.861488,0.886198,0.397224
2667,-0.909129,0.785419,0.521171
2668,-0.227387,0.313107,0.160746
2669,-0.085864,0.224514,0.110349
2670,-0.094121,0.233626,0.132803
2671,-0.057043,-0.034418,0.104083
2672,-0.359298,-0.311689,0.295869
2673,-0.355231,-0.301812,0.324453
2674,-0.392547,-0.475993,0.463299
2675,-0.287505,-0.687923,0.492471
2676,-0.195623,-0.78975,0.503116
2677,-0.143367,-0.739629,0.462745
2678,-0.188426,-0.64507,0.38004
2679,-0.189847,-0.621515,0.340735
2680,-0.21037,-0.347764,0.180575
2681,-0.28513,0.176118,0.130635
2682,-0.355803,0.47448,0.06984
2683,-0.332124,1.349764,-0.059797
2684,-0.4875,0.54622,-0.27913
2685,-0.502302,0.208335,-0.140645
2686,-0.279804,0.490213,-0.04532
2687,-0.416132,1.740723,0.607255
2688,-0.425245,1.752757,0.621265
2689,-0.489722,-0.378212,0.60949
2690,-0.476216,-0.317993,0.415912
2691,-0.328489,-0.177883,0.523977
2692,0.210608,0.190249,0.637974
2693,0.075475,0.378496,0.587631
2694,-0.15333,0.326918,0.475986
2695,-0.354646,0.060469,0.321578
2696,-0.352475,-0.128304,0.310948
2697,-0.367184,-0.215267,0.287982
2698,-0.306291,-0.435434,0.411237
2699,-0.29819,-0.450538,0.434589
2700,-0.265659,-0.23981,0.38602
2701,-0.241857,-0.258585,0.173587
2702,-0.228924,-0.279737,0.125572
2703,-0.172523,-0.095312,0.225046
2704,-0.165277,-0.050954,0.123486
2705,-0.123577,-0.01836,0.015563
2706,-0.098535,0.049968,0.0176
2707,0.011269,0.10451,0.083049
2708,0.327909,-0.023645,-0.013964
2709,0.364952,-0.006416,-0.041523
2710,0.114548,0.448972,0.143583
2711,-0.182017,0.57189,0.260693
2712,-0.130441,0.584723,0.419318
2713,-0.272132,0.537104,0.428612
2714,-0.757619,0.50832,0.256984
2715,-0.94845,0.804935,0.379181
2716,-0.764743,0.481958,0.526458
2717,-0.375538,0.273432,0.30115
2718,-0.382261,0.280701,0.319924
2719,-0.012868,0.296282,0.052936
2720,-0.226381,-0.081332,0.123306
2721,-0.229053,-0.071462,0.148472
2722,-0.415992,-0.398928,0.322213
2723,-0.381,-0.522507,0.392802
2724,-0.336878,-0.552657,0.395452
2725,-0.221546,-0.670611,0.40303
2726,-0.135749,-0.648042,0.424839
2727,-0.126401,-0.619,0.416762
2728,-0.137304,-0.593583,0.313573
2729,-0.217112,-0.30252,0.149795
2730,-0.227403,-0.10656,0.127372
2731,-0.392476,0.235518,0.095663
2732,-0.152972,1.460176,-0.187852
2733,-0.197589,1.375657,-0.296046
2734,-0.372494,0.086978,-0.096557
2735,-0.411609,0.115437,-0.107182
2736,-0.029497,0.471515,0.237579
2737,-0.6191,1.256114,0.703612
2738,-0.483924,1.163123,0.666644
2739,-0.495504,0.472024,0.548825
2740,-0.355082,-0.336818,0.510274
2741,-0.113922,-0.218309,0.608514
2742,0.076388,-0.174771,0.622504
2743,-0.247648,0.427794,0.5972
2744,-0.388539,0.353965,0.496755
2745,-0.4223,0.217505,0.361645
2746,-0.381638,-0.102855,0.288673
2747,-0.370189,-0.203125,0.291782
2748,-0.326081,-0.479666,0.36507
2749,-0.35319,-0.387543,0.489759
2750,-0.336744,-0.163412,0.340379
2751,-0.244629,-0.286315,0.16726
2752,-0.262633,-0.341322,0.184516
2753,-0.247454,-0.260538,0.185615
2754,-0.203983,-0.19922,0.098165
2755,-0.055276,0.114107,0.032632
2756,0.091389,0.172726,0.157301
2757,0.272331,0.110838,-0.010667
2758,0.390382,0.092462,-0.160132
2759,0.299574,0.241477,0.015096
2760,-0.109093,0.497409,-0.005707
2761,-0.061123,0.544147,0.346611
2762,-0.029057,0.547888,0.487688
2763,-0.478968,0.517629,0.370314
2764,-0.823522,0.872993,0.304214
2765,-1.003162,0.965611,0.507029
2766,-0.885674,0.708123,0.523044
2767,-0.450648,0.456955,0.215191
2768,-0.116938,0.204561,0.161766
2769,-0.181788,0.091623,0.207785
2770,-0.125968,-0.111205,0.13429
2771,-0.385298,-0.377042,0.283243
2772,-0.425205,-0.412683,0.336567
2773,-0.40567,-0.579022,0.453897
2774,-0.255203,-0.847006,0.391306
2775,-0.198952,-0.857785,0.409673
2776,-0.184399,-0.731952,0.407985
2777,-0.22966,-0.611248,0.333715
2778,-0.256487,-0.505049,0.275134
2779,-0.28753,-0.152976,0.172325
2780,-0.393384,0.515908,-0.017457
2781,-0.319984,1.051463,-0.089634
2782,-0.328344,1.188166,-0.245679
2783,-0.608721,0.696413,-0.077703
2784,-0.611911,1.064431,0.093879
2785,0.027994,1.386075,0.160999
2786,-0.484598,-0.792375,0.481201
2787,-0.752007,-1.199914,0.576303
2788,-0.294392,0.043089,0.595189
2789,-0.068179,0.512672,0.601819
2790,0.006628,0.564402,0.722812
2791,-0.319366,0.125297,0.274818
2792,-0.38237,0.075944,0.166147
2793,-0.304371,0.017539,0.226383
2794,-0.162356,-0.183608,0.37847
2795,-0.217872,-0.291267,0.372089
2796,-0.257601,-0.322888,0.352165
2797,-0.356304,-0.301422,0.372702
2798,-0.286289,-0.175517,0.315135
2799,-0.258258,-0.168983,0.233596
2800,-0.274816,-0.343074,0.098756
2801,-0.270651,-0.341404,0.17127
2802,-0.237054,-0.200839,0.151278
2803,-0.043936,0.137307,0.263404
2804,-0.09285,-0.22171,-0.018774
2805,-0.231836,-0.234331,0.009905
2806,0.135365,0.208534,-0.033144
2807,0.396534,0.192379,-0.005062
2808,0.291871,0.209422,0.119364
2809,-0.052791,0.67256,0.097538
2810,-0.112205,0.62678,0.300421
2811,-0.209559,0.543969,0.413718
2812,-0.645621,0.465063,0.301359
2813,-0.722293,0.609203,0.327893
2814,-0.828954,0.77943,0.506174
2815,-0.756657,0.633514,0.448112
2816,-0.473863,0.459533,0.241545
2817,-0.365136,0.423169,0.231291
2818,-0.1735,0.063665,0.119044
2819,-0.210914,-0.132188,0.179403
2820,-0.30619,-0.221873,0.231523
2821,-0.384685,-0.359709,0.363672
2822,-0.28776,-0.791507,0.429037
2823,-0.228504,-0.87571,0.380542
2824,-0.22534,-0.750598,0.421802
2825,-0.155093,-0.722348,0.366127
2826,-0.091352,-0.677425,0.323769
2827,-0.135564,-0.479193,0.183817
2828,-0.149905,-0.195024,0.165406
2829,-0.166689,-0.001178,0.179173
2830,-0.181186,1.168177,-0.023197
2831,-0.332961,1.427989,-0.207854
2832,-0.457208,0.707962,-0.09485
2833,-0.486351,0.767488,0.073948
2834,-0.176247,1.264698,0.369587
2835,-0.350526,1.658565,0.390658
2836,-0.340465,-0.142355,0.639592
2837,-0.328559,-0.187103,0.406131
2838,-0.141231,0.036322,0.54355
2839,0.062657,0.224212,0.715932
2840,-0.16861,0.242937,0.535862
2841,-0.31347,0.239738,0.49775
2842,-0.346515,0.134311,0.382095
2843,-0.234278,0.01897,0.382126
2844,-0.275872,-0.198442,0.380085
2845,-0.26819,-0.338584,0.449639
2846,-0.262706,-0.385982,0.483392
2847,-0.257279,-0.346949,0.442422
2848,-0.286648,-0.360029,0.336887
2849,-0.276912,-0.403446,0.269315
2850,-0.263029,-0.389625,0.263214
2851,-0.221491,-0.200281,0.20255
2852,-0.175606,-0.012485,0.050374
2853,-0.137484,0.081983,0.006204
2854,0.007458,0.067234,0.21584
2855,0.274139,-0.087971,-0.002407
2856,0.530146,0.062378,-0.037134
2857,0.391661,0.257106,-0.023929
2858,-0.146948,0.624115,0.276759
2859,-0.157669,0.623766,0.261978
2860,-0.106393,0.720315,0.383698
2861,-0.745133,0.507896,0.421213
2862,-0.807802,0.545895,0.334661
2863,-0.884841,0.725467,0.502804
2864,-0.716465,0.562958,0.429595
2865,-0.538466,0.513781,0.289007
2866,-0.124493,0.496716,0.062258
2867,-0.000374,0.114408,0.159013
2868,-0.148889,-0.02416,0.264941
2869,-0.325961,-0.245438,0.315987
2870,-0.402297,-0.457405,0.421028
2871,-0.379531,-0.564603,0.495634
2872,-0.210781,-0.795443,0.445605
2873,-0.17682,-0.72868,0.469107
2874,-0.184799,-0.678606,0.478273
2875,-0.148196,-0.67032,0.399759
2876,-0.12317,-0.614382,0.378204
2877,-0.157415,-0.356541,0.286633
2878,-0.273558,0.284061,0.132269
2879,-0.323177,1.118267,-0.078038
2880,-0.234538,1.777912,-0.325843
2881,-0.458863,0.323241,-0.262595
2882,-0.326783,0.169721,-0.131607
2883,0.077429,0.610054,0.153439
2884,-0.25128,1.847488,0.558154
2885,-0.383196,0.57782,0.614732
2886,-0.552697,-0.484195,0.709091
2887,-0.390619,-0.399272,0.504992
2888,-0.025872,-0.040416,0.780924
2889,0.1595,0.07028,0.743523
2890,-0.13049,0.405786,0.61597
2891,-0.488577,0.298077,0.341997
2892,-0.348274,0.078615,0.309047
2893,-0.249447,-0.183716,0.348194
2894,-0.197877,-0.387199,0.365531
2895,-0.221013,-0.556776,0.413559
2896,-0.259453,-0.426039,0.453503
2897,-0.253531,-0.197022,0.204289
2898,-0.24722,-0.20789,0.175977
2899,-0.146671,-0.259085,0.162351
2900,-0.046922,-0.072945,0.25461
2901,-0.029015,-0.080497,0.236877
2902,-0.194962,0.065254,0.275193
2903,-0.038475,0.122519,0.307685
2904,0.176123,0.073218,0.237542
2905,0.443181,0.155454,-0.039856
2906,0.289586,0.230571,0.130388
2907,0.12279,0.34176,0.109665
2908,-0.110744,0.506974,0.326204
2909,-0.235734,0.468713,0.497558
2910,-0.446195,0.461831,0.512895
2911,-0.645731,0.613298,0.410825
2912,-0.93223,1.064312,0.540106
2913,-0.938416,0.980039,0.529561
2914,-0.732564,0.6332,0.417955
2915,-0.211713,0.373522,0.132007
2916,-0.06387,0.25289,0.17301
2917,-0.355875,-0.254453,0.344215
2918,-0.376057,-0.338638,0.431466
2919,-0.421458,-0.319018,0.447949
2920,-0.434494,-0.504798,0.425137
2921,-0.256631,-0.715121,0.453965
2922,-0.132585,-0.762902,0.424778
2923,-0.13548,-0.644714,0.425323
2924,-0.13153,-0.641877,0.457668
2925,-0.06527,-0.623542,0.364719
2926,-0.021049,-0.365133,0.159017
2927,-0.067243,0.061193,0.151891
2928,-0.122418,0.678887,-0.057724
2929,-0.073198,1.246744,-0.197621
2930,-0.289291,0.997639,-0.351501
2931,-0.235321,0.471112,-0.373355
2932,-0.203969,0.212685,0.022078
2933,-0.144275,0.880768,0.396772
2934,-0.674496,1.549221,0.741479
2935,-0.731987,1.002998,0.750829
2936,-0.812416,-0.06686,0.47701
2937,-0.633942,-0.402108,0.378535
2938,0.047471,-0.115497,0.664714
2939,0.409165,0.447571,0.642981
2940,0.120768,0.536913,0.614753
2941,-0.351589,0.399033,0.394363
2942,-0.320782,-0.012562,0.31338
2943,-0.295942,-0.317959,0.359505
2944,-0.261944,-0.531087,0.490074
2945,-0.316575,-0.499223,0.568447
2946,-0.321938,-0.507125,0.54523
2947,-0.366999,-0.123638,0.308941
2948,-0.239521,-0.361669,0.24138
2949,-0.228538,-0.369726,0.221211
2950,-0.167369,-0.163793,0.290776
2951,-0.165561,0.011406,0.153877
2952,-0.156022,-0.00634,0.177812
2953,0.000659,-0.010764,0.225044
2954,0.264063,0.060785,-0.034447
2955,0.443559,0.1959,-0.01859
2956,0.307073,0.283443,0.121322
2957,-0.112652,0.509413,0.211425
2958,0.120592,0.515113,0.48041
2959,-0.203425,0.322311,0.409986
2960,-0.389936,0.490042,0.460909
2961,-0.636645,0.799921,0.349368
2962,-0.973067,1.013939,0.616933
2963,-0.822324,0.60923,0.467664
2964,-0.726187,0.501415,0.393769
2965,-0.009876,0.10754,0.049472
2966,0.059393,0.00843,0.126358
2967,0.042029,-0.08736,0.238966
2968,-0.386266,-0.240344,0.314618
2969,-0.385388,-0.267304,0.354806
2970,-0.322966,-0.483773,0.477594
2971,-0.188584,-0.716371,0.474357
2972,-0.124494,-0.722531,0.495455
2973,-0.179994,-0.546437,0.446558
2974,-0.161582,-0.569506,0.407781
2975,-0.144551,-0.522878,0.353333
2976,-0.137691,-0.254327,0.257625
2977,-0.220095,0.015146,0.280022
2978,-0.238891,0.610172,0.047056
2979,-0.156783,1.524484,-0.206926
2980,-0.410877,0.676106,-0.287336
2981,-0.423187,0.154354,-0.362961
2982,-0.290882,0.22323,0.071108
2983,-0.020639,0.993177,0.520522
2984,-0.661507,1.843019,0.92245
2985,-0.60002,1.078154,0.623269
2986,-0.519502,-0.444466,0.489486
2987,-0.127183,-0.368319,0.569193
2988,0.042548,-0.332964,0.670034
2989,0.321819,0.034511,0.685685
2990,-0.07648,0.580972,0.708977
2991,-0.502581,0.43931,0.419574
2992,-0.375934,0.011827,0.309738
2993,-0.307048,-0.295646,0.375161
2994,-0.326517,-0.302222,0.350344
2995,-0.279784,-0.51264,0.429457
2996,-0.255387,-0.107983,0.409027
2997,-0.254291,-0.117966,0.380175
2998,-0.18806,-0.348823,0.179173
2999,-0.190781,-0.345859,0.196064
3000,-0.179365,-0.299341,0.198497
3001,-0.266942,-0.148346,0.113047
3002,-0.115586,0.003913,0.2103
3003,0.039681,0.081942,0.191669
3004,0.285688,-0.019593,-0.046004
3005,0.265021,0.192877,0.075321
3006,0.267975,0.19024,0.06128
3007,-0.238051,0.468863,0.125477
3008,0.006666,0.65178,0.535896
3009,-0.148773,0.620421,0.494032
3010,-0.650659,0.690801,0.390716
3011,-0.884232,1.268982,0.552567
3012,-1.05127,1.346076,0.685644
3013,-0.654136,0.572268,0.27747
3014,-0.224811,0.428687,-0.014476
3015,0.064639,0.344039,-0.00352
3016,-0.290032,-0.213464,0.174972
3017,-0.358146,-0.221592,0.264166
3018,-0.404417,-0.429461,0.334561
3019,-0.325553,-0.707314,0.506627
3020,-0.241514,-0.879001,0.507297
3021,-0.12762,-0.775818,0.50347
3022,-0.126645,-0.842299,0.432484
3023,-0.115152,-0.727786,0.400793
3024,-0.173212,-0.605757,0.337219
3025,-0.149085,-0.121772,0.193226
3026,-0.217201,0.13237,0.156303
3027,-0.38031,0.425211,0.031771
3028,-0.316038,1.991405,-0.300878
3029,-0.455267,1.096086,-0.252943
3030,-0.482357,0.05921,-0.110359
3031,-0.149911,0.709927,0.403893
3032,-0.33265,1.672569,0.627928
3033,-0.472831,1.67551,0.723526
3034,-0.519374,0.096276,0.522593
3035,-0.453292,-0.450163,0.430632
3036,-0.369072,-0.348725,0.505066
3037,0.213934,0.023392,0.728291
3038,0.149631,0.471285,0.674997
3039,-0.164943,0.482091,0.612513
3040,-0.441695,0.178196,0.343731
3041,-0.396787,-0.147393,0.355445
3042,-0.40904,-0.157829,0.327816
3043,-0.369225,-0.47,0.414698
3044,-0.352014,-0.512075,0.489437
3045,-0.301404,-0.370284,0.451025
3046,-0.183409,-0.116677,0.263865
3047,-0.153293,-0.301255,0.162951
3048,-0.244652,-0.25509,0.219433
3049,-0.310143,-0.07213,0.237091
3050,-0.343549,-0.109524,0.093958
3051,-0.110317,0.056544,0.243843
3052,0.154269,0.040744,0.06148
3053,0.442318,0.146432,-0.032499
3054,0.420802,0.214837,0.017017
3055,0.081726,0.483921,0.016243
3056,-0.171275,0.601352,0.061207
3057,-0.081661,0.631975,0.539924
3058,-0.357586,0.559733,0.543598
3059,-0.757319,0.722156,0.333269
3060,-0.811302,0.920411,0.40646
3061,-0.819534,0.733649,0.566684
3062,-0.510061,0.433151,0.411609
3063,-0.210689,0.414944,0.184265
3064,0.005188,0.258965,0.089551
3065,0.003935,0.121278,0.144347
3066,-0.318622,-0.133606,0.319586
3067,-0.386447,-0.309457,0.34574
3068,-0.384314,-0.377714,0.440783
3069,-0.290456,-0.591413,0.559692
3070,-0.160517,-0.863119,0.538102
3071,-0.134102,-0.764675,0.551305
3072,-0.173869,-0.655956,0.511197
3073,-0.204343,-0.601377,0.337047
3074,-0.222531,-0.48379,0.286477
3075,-0.2635,-0.316578,0.273128
3076,-0.393829,0.379971,0.154982
3077,-0.09249,1.448413,-0.129243
3078,-0.092318,1.77629,-0.20998
3079,-0.237507,0.158015,-0.030837
3080,-0.21357,0.252897,-0.002309
3081,-0.068624,0.945857,0.245852
3082,-0.493031,1.354755,0.637955
3083,-0.612725,1.429463,0.550862
3084,-0.638259,0.066124,0.463465
3085,-0.388303,-0.25498,0.468183
3086,-0.054299,-0.118281,0.627121
3087,0.152992,-0.145907,0.630409
3088,-0.005266,0.397487,0.641472
3089,-0.471268,0.30637,0.474537
3090,-0.495369,0.174734,0.394381
3091,-0.361058,-0.16847,0.344687
3092,-0.316178,-0.3795,0.337094
3093,-0.279529,-0.515824,0.396166
3094,-0.305692,-0.45034,0.459681
3095,-0.286718,-0.166197,0.333151
3096,-0.228305,-0.227444,0.235401
3097,-0.184232,-0.29829,0.19179
3098,-0.153623,-0.079594,0.234408
3099,-0.118367,-0.076018,0.17364
3100,-0.092907,-0.017805,-0.021821
3101,0.02931,0.153613,0.238477
3102,0.141993,0.089328,0.156856
3103,0.361213,0.07482,-0.09104
3104,0.197043,0.30036,0.161733
3105,0.053198,0.46737,0.260777
3106,-0.035526,0.697024,0.500103
3107,-0.122982,0.707912,0.49115
3108,-0.734951,0.748894,0.362426
3109,-1.013753,0.835904,0.489534
3110,-0.915657,0.652393,0.61911
3111,-0.83102,0.54273,0.612902
3112,-0.345713,0.516136,0.266878
3113,-0.063188,0.369939,0.182386
3114,-0.167259,0.226303,0.253539
3115,-0.15982,-0.149446,0.258424
3116,-0.289466,-0.503271,0.515225
3117,-0.243683,-0.437272,0.174602
3118,-0.336221,-0.695024,0.50432
3119,-0.318688,-0.867883,0.408387
3120,-0.2578,-0.690841,0.429864
3121,-0.220681,-0.579746,0.446252
3122,-0.154323,-0.563888,0.391389
3123,-0.159315,-0.491068,0.353106
3124,-0.177387,-0.144597,0.113885
3125,-0.230646,0.153116,0.107276
3126,-0.252138,0.413724,0.034537
3127,-0.030709,1.36444,-0.296676
3128,-0.25503,0.411232,-0.212903
3129,-0.346206,0.189375,-0.068909
3130,-0.240006,1.218581,0.187705
3131,-0.31943,1.84818,0.419958
3132,-0.566056,1.597252,0.797669
3133,-0.619133,-0.503439,0.677366
3134,-0.559123,-0.322786,0.480536
3135,-0.434373,-0.073282,0.646355
3136,0.232609,0.229485,0.728068
3137,0.062718,0.562347,0.625777
3138,-0.20728,0.47824,0.485399
3139,-0.348826,0.024855,0.312952
3140,-0.25722,-0.217056,0.342175
3141,-0.24481,-0.383099,0.34607
3142,-0.268984,-0.416253,0.399563
3143,-0.262443,-0.320038,0.484364
3144,-0.279363,-0.218941,0.43126
3145,-0.286382,-0.250124,0.215361
3146,-0.259955,-0.306759,0.226367
3147,-0.201947,-0.132081,0.285169
3148,-0.113141,-0.057856,0.272112
3149,-0.157864,0.016112,0.003007
3150,-0.173182,0.069004,0.003703
3151,-0.042129,0.003945,0.324843
3152,0.364525,0.078482,0.044223
3153,0.261884,0.1933,0.098597
3154,-0.018653,0.32636,0.111919
3155,-0.341365,0.412303,0.216964
3156,-0.01788,0.478178,0.549177
3157,-0.067683,0.461402,0.463543
3158,-0.591496,0.49571,0.409838
3159,-0.623663,0.509094,0.447573
3160,-0.928503,0.904296,0.564715
3161,-0.843776,0.691831,0.584233
3162,-0.709088,0.497145,0.491544
3163,-0.173307,0.388735,0.126007
3164,0.055693,0.243211,0.050427
3165,-0.032105,0.010671,0.194443
3166,-0.36641,-0.154245,0.345715
3167,-0.383128,-0.335613,0.463524
3168,-0.350309,-0.438791,0.513417
3169,-0.257895,-0.701696,0.47576
3170,-0.260367,-0.600279,0.495831
3171,-0.246213,-0.576489,0.492937
3172,-0.21515,-0.600635,0.432084
3173,-0.11571,-0.519061,0.37175
3174,-0.114129,-0.434062,0.27229
3175,-0.104367,-0.18594,0.173007
3176,-0.112759,0.624965,0.145016
3177,-0.030786,1.087115,0.11665
3178,-0.359823,1.048166,-0.366293
3179,-0.3376,0.157293,-0.121108
3180,-0.319055,0.143398,-0.081033
3181,-0.178411,1.280325,0.559527
3182,-0.555526,1.643512,0.718342
3183,-0.535423,0.95057,0.712006
3184,-0.525912,-0.393148,0.550859
3185,-0.358502,-0.244871,0.544196
3186,0.067373,-0.058527,0.742335
3187,0.398079,0.418529,0.752811
3188,-0.068469,0.502771,0.521899
3189,-0.44518,0.243027,0.358364
3190,-0.276532,-0.050735,0.405517
3191,-0.246763,-0.293816,0.357477
3192,-0.209511,-0.351319,0.374741
3193,-0.198768,-0.412658,0.493938
3194,-0.302688,-0.263188,0.479367
3195,-0.321832,-0.168781,0.320387
3196,-0.268863,-0.250274,0.214085
3197,-0.194354,-0.171752,0.273575
3198,-0.073718,-0.026483,0.326673
3199,-0.075814,-0.013221,0.299089
3200,-0.11943,0.00259,0.16829
3201,-0.150122,0.025783,0.243995
3202,0.158599,0.006271,0.221523
3203,0.490017,0.107704,0.104297
3204,0.410741,0.101542,0.173946
3205,-0.21889,0.550902,0.304573
3206,-0.021846,0.653133,0.596143
3207,-0.008725,0.566322,0.599687
3208,-0.519348,0.525444,0.509819
3209,-0.802155,0.819718,0.327992
3210,-0.918474,0.961215,0.464522
3211,-0.950987,0.78517,0.583406
3212,-0.674229,0.375714,0.456197
3213,-0.332412,0.379986,0.268413
3214,0.01349,0.255749,0.193196
3215,-0.434063,0.038397,-0.011745
3216,-0.442854,0.051046,0.009474
3217,-0.315175,-0.260315,0.444319
3218,-0.381457,-0.369741,0.352859
3219,-0.364793,-0.401226,0.436506
3220,-0.120292,-0.632306,0.467256
3221,-0.167594,-0.611111,0.459885
3222,-0.176013,-0.587054,0.430222
3223,-0.144358,-0.576685,0.396301
3224,-0.103449,-0.419501,0.298207
3225,-0.115794,-0.312693,0.254977
3226,-0.207382,0.151611,0.189687
3227,-0.168609,1.295535,0.010781
3228,-0.003431,1.616617,-0.149348
3229,-0.373129,0.34485,-0.025602
3230,-0.386345,0.540036,0.045975
3231,-0.213199,1.085564,0.155272
3232,-0.532009,1.740151,0.512682
3233,-0.454383,0.098726,0.54858
3234,-0.533709,-0.182253,0.631699
3235,-0.529309,-0.360933,0.404988
3236,-0.083007,0.01584,0.796521
3237,0.067135,0.094039,0.752282
3238,0.060272,0.418273,0.633909
3239,-0.384994,0.25074,0.380067
3240,-0.335126,0.14578,0.353219
3241,-0.227656,-0.140968,0.411341
3242,-0.222757,-0.226651,0.391117
3243,-0.213125,-0.33101,0.522883
3244,-0.216235,-0.19802,0.535592
3245,-0.230536,-0.119952,0.447968
3246,-0.259226,-0.193014,0.165618
3247,-0.24343,-0.269124,0.21172
3248,-0.221733,-0.150638,0.276021
3249,-0.225875,-0.094957,0.161748
3250,-0.141743,-0.017343,0.129979
3251,-0.060946,0.057689,0.190317
3252,-0.074436,0.057633,0.117886
3253,0.151914,-0.028773,-0.001733
3254,0.304368,0.04608,0.047171
3255,0.236475,0.182913,0.129053
3256,-0.169839,0.625092,0.304667
3257,-0.024906,0.705595,0.580057
3258,-0.26543,0.636187,0.489955
3259,-0.782944,0.6437,0.343827
3260,-0.876172,0.638117,0.388856
3261,-0.885178,0.631124,0.507277
3262,-0.760463,0.393882,0.602027
3263,-0.272808,0.343533,0.282395
3264,-0.139493,0.334209,0.208887
3265,-0.015498,0.136416,0.174689
3266,-0.182444,-0.078626,0.247692
3267,-0.430815,-0.184223,0.315528
3268,-0.418871,-0.312338,0.381173
3269,-0.328053,-0.502229,0.442087
3270,-0.250833,-0.627124,0.450472
3271,-0.146925,-0.633753,0.490403
3272,-0.159732,-0.534366,0.437733
3273,-0.142184,-0.558296,0.404662
3274,-0.094983,-0.472853,0.35047
3275,-0.139497,-0.199796,0.115634
3276,-0.123886,0.099994,0.085227
3277,-0.197696,0.503002,0.133985
3278,-0.219454,1.331686,-0.181085
3279,-0.427947,1.020337,-0.258635
3280,-0.395511,0.159992,-0.05583
3281,-0.159141,0.679449,0.288133
3282,-0.178387,1.130696,0.402241
3283,-0.599894,1.452306,0.767207
3284,-0.582886,0.128969,0.58951
3285,-0.66582,-0.155722,0.47812
3286,-0.269298,-0.240976,0.626355
3287,0.142727,-0.088032,0.74249
3288,0.315041,0.145236,0.717906
3289,-0.175253,0.345606,0.502878
3290,-0.352941,0.144771,0.339534
3291,-0.307617,-0.009851,0.323898
3292,-0.321601,-0.27786,0.368026
3293,-0.341575,-0.375618,0.423053
3294,-0.36232,-0.386321,0.54328
3295,-0.312505,-0.178228,0.439131
3296,-0.265144,-0.152383,0.278296
3297,-0.203773,-0.228964,0.213584
3298,-0.170874,-0.137622,0.247277
3299,-0.164202,-0.098058,0.231674
3300,-0.091378,0.082771,0.19411
3301,-0.068948,0.183289,0.207004
3302,-0.205929,0.116761,0.212197
3303,-0.159284,0.071921,0.187245
3304,0.365611,0.116715,-0.034502
3305,0.290391,0.186547,0.0899
3306,0.222205,0.43605,0.15905
3307,-0.09495,0.613196,0.517637
3308,-0.180281,0.63264,0.509913
3309,-0.338276,0.59301,0.481841
3310,-0.716966,0.56569,0.333703
3311,-0.758395,0.513748,0.537772
3312,-0.716989,0.416344,0.583093
3313,-0.54338,0.334258,0.481331
3314,-0.271572,0.324425,0.321534
3315,-0.186343,0.290747,0.281404
3316,-0.112604,-0.015186,0.260517
3317,-0.340256,-0.139996,0.383504
3318,-0.327528,-0.241581,0.357872
3319,-0.313272,-0.496696,0.464073
3320,-0.274217,-0.61769,0.450237
3321,-0.18818,-0.602027,0.516118
3322,-0.141951,-0.508001,0.524555
3323,-0.130768,-0.57189,0.412113
3324,-0.118191,-0.551513,0.381137
3325,-0.179675,-0.252378,0.208065
3326,-0.241119,0.192358,0.100175
3327,-0.240313,0.40651,0.092093
3328,-0.189841,1.026896,-0.049028
3329,-0.365387,0.680396,-0.146097
3330,-0.474449,0.331327,-0.026037
3331,-0.149357,1.544193,0.43408
3332,-0.354705,1.712212,0.563377
3333,-0.535442,1.395747,0.712112
3334,-0.719742,-0.305067,0.619436
3335,-0.535104,-0.275571,0.429422
3336,-0.339909,-0.18492,0.604384
3337,0.305205,0.24714,0.756287
3338,0.140181,0.414983,0.621604
3339,-0.126295,0.392493,0.468938
3340,-0.298266,0.069018,0.269082
3341,-0.219809,-0.218054,0.339828
3342,-0.228102,-0.324022,0.341828
3343,-0.264306,-0.419883,0.436855
3344,-0.301519,-0.287149,0.505936
3345,-0.304862,-0.175215,0.467563
3346,-0.261412,-0.165969,0.193858
3347,-0.2415,-0.248405,0.190924
3348,-0.231039,-0.21297,0.235698
3349,-0.212651,-0.050498,0.287965
3350,-0.208858,-0.023499,0.284107
3351,-0.213891,0.05327,0.18676
3352,-0.055287,0.10641,0.287389
3353,0.337157,0.12988,0.046025
3354,0.433241,0.155662,-0.012057
3355,0.149659,0.457693,0.224569
3356,-0.12402,0.581013,0.363311
3357,-0.000529,0.575068,0.592873
3358,-0.275127,0.462551,0.466154
3359,-0.645811,0.556956,0.40118
3360,-0.833997,0.735573,0.402397
3361,-0.830327,0.658582,0.634439
3362,-0.496103,0.325056,0.424069
3363,-0.334678,0.364078,0.33992
3364,-0.12696,0.329409,0.26763
3365,-0.257448,0.004031,0.258239
3366,-0.268915,-0.031538,0.284353
3367,-0.320969,-0.214747,0.330321
3368,-0.351038,-0.352776,0.490841
3369,-0.297187,-0.487017,0.497426
3370,-0.21777,-0.64616,0.454603
3371,-0.168606,-0.528156,0.495248
3372,-0.145766,-0.548864,0.483755
3373,-0.12779,-0.594133,0.418353
3374,-0.10518,-0.302762,0.176878
3375,-0.150847,0.057305,0.043043
3376,-0.165681,0.477542,0.127315
3377,-0.164334,0.790675,0.086354
3378,0.010221,1.511855,-0.096072
3379,-0.341099,0.193818,-0.033956
3380,-0.378774,0.255789,0.05927
3381,-0.215211,0.887175,0.475728
3382,-0.829921,1.634584,0.901462
3383,-0.647276,0.987309,0.77672
3384,-0.671089,0.144457,0.650729
3385,-0.431891,-0.299898,0.444204
3386,0.057735,-0.227364,0.753445
3387,0.302657,-0.047288,0.715543
3388,-0.000524,0.470226,0.602947
3389,-0.310459,0.283248,0.364361
3390,-0.284372,0.066058,0.325368
3391,-0.29637,-0.312346,0.396304
3392,-0.358937,-0.493577,0.431843
3393,-0.394886,-0.560192,0.483063
3394,-0.401251,-0.157816,0.491367
3395,-0.256621,-0.074755,0.27159
3396,-0.191542,-0.134748,0.190089
3397,-0.118055,-0.142391,0.211362
3398,-0.111611,0.041995,0.252437
3399,-0.097646,0.034423,0.236495
3400,-0.149796,-0.040073,0.163355
3401,0.028,0.031342,0.037263
3402,0.039579,0.026958,0.026888
3403,0.329483,0.126565,0.028815
3404,0.212417,0.434349,0.170133
3405,-0.166912,0.620516,0.230797
3406,-0.017649,0.614485,0.596
3407,-0.203809,0.473925,0.489091
3408,-0.662147,0.564251,0.441776
3409,-0.813468,0.766321,0.396445
3410,-0.821452,0.587937,0.594587
3411,-0.723292,0.448868,0.522974
3412,-0.314559,0.32907,0.279323
3413,-0.175859,0.275285,0.233489
3414,0.036025,0.057607,0.171811
3415,-0.144423,-0.143462,0.293297
3416,-0.44128,-0.27454,0.361889
3417,-0.402083,-0.291835,0.422031
3418,-0.329754,-0.448324,0.492551
3419,-0.203833,-0.596343,0.477256
3420,-0.166938,-0.512214,0.542474
3421,-0.132168,-0.504793,0.450273
3422,-0.120598,-0.472651,0.425327
3423,-0.161337,-0.22986,0.21806
3424,-0.216824,0.01035,0.10672
3425,-0.256478,0.149359,0.167019
3426,-0.108308,1.171363,0.008178
3427,-0.17415,1.031701,-0.08547
3428,-0.249715,0.602214,-0.113517
3429,-0.330174,0.649662,0.187524
3430,-0.269724,1.376458,0.568128
3431,-0.676068,1.377526,0.813707
3432,-0.736963,0.786801,0.655149
3433,-0.618249,-0.28532,0.539735
3434,-0.279385,-0.201325,0.595189
3435,-0.078466,-0.131394,0.751663
3436,0.377389,0.256686,0.764445
3437,-0.106425,0.331253,0.563767
3438,-0.315462,0.297325,0.404837
3439,-0.303326,-0.03177,0.36836
3440,-0.287779,-0.251912,0.392334
3441,-0.296472,-0.391817,0.410551
3442,-0.315113,-0.42145,0.518633
3443,-0.21256,-0.141086,0.468419
3444,-0.182445,-0.131872,0.275492
3445,-0.15648,-0.207598,0.233617
3446,-0.175828,-0.08989,0.319375
3447,-0.12962,-0.025838,0.281932
3448,-0.194405,-0.04006,0.133867
3449,-0.122762,0.047731,0.272289
3450,-0.056262,0.085727,0.267625
3451,0.112827,0.05975,0.073904
3452,0.280755,0.116266,0.082368
3453,0.232252,0.20132,0.140176
3454,0.0971,0.383902,0.201267
3455,-0.130123,0.496837,0.369589
3456,-0.157464,0.489537,0.516372
3457,-0.500525,0.458373,0.543181
3458,-0.804819,1.034711,0.467798
3459,-0.891725,1.123743,0.590164
3460,-0.64796,0.580634,0.422947
3461,-0.50347,0.404719,0.320571
3462,-0.285747,0.321661,0.199358
3463,-0.002214,0.126006,0.149168
3464,-0.116665,-0.178198,0.223995
3465,-0.251639,-0.20741,0.288401
3466,-0.445359,-0.426847,0.548919
3467,-0.384457,-0.483184,0.569444
3468,-0.289688,-0.649505,0.510948
3469,-0.154751,-0.654175,0.537207
3470,-0.111002,-0.630572,0.5276
3471,-0.062927,-0.603498,0.404071
3472,-0.073977,-0.371707,0.261258
3473,-0.143309,-0.022183,0.179594
3474,-0.151852,0.407187,0.250522
3475,-0.31163,1.114854,0.095531
3476,-0.37713,1.504094,-0.199642
3477,-0.513728,0.351645,-0.058583
3478,-0.426999,0.292629,0.05444
3479,-0.033095,1.023812,0.612105
3480,-0.491493,1.723781,0.846937
3481,-0.533981,0.387321,0.706231
3482,-0.620306,-0.304546,0.512977
3483,-0.450653,-0.289198,0.458913
3484,0.062065,-0.050798,0.760182
3485,0.28808,0.10729,0.746215
3486,-0.038281,0.352218,0.645778
3487,-0.440338,0.214158,0.418354
3488,-0.437645,0.105679,0.379363
3489,-0.32208,-0.177195,0.395841
3490,-0.259136,-0.40924,0.431241
3491,-0.243119,-0.521692,0.535428
3492,-0.247162,-0.225913,0.527838
3493,-0.262937,-0.128593,0.352148
3494,-0.241937,-0.185736,0.252968
3495,-0.210184,-0.10002,0.292178
3496,-0.166909,0.02782,0.328979
3497,-0.166668,-0.042498,0.078702
3498,-0.144943,-0.020555,0.117447
3499,0.222168,0.079456,0.17004
3500,0.508661,0.076076,0.07691
3501,0.485946,0.079568,0.035857
3502,0.197035,0.392753,0.207311
3503,-0.118637,0.522363,0.438648
3504,-0.060056,0.55444,0.602678
3505,-0.248153,0.492829,0.532486
3506,-0.73987,0.633649,0.487717
3507,-1.022342,0.961238,0.415518
3508,-1.088865,0.915974,0.634423
3509,-0.838144,0.46228,0.540192
3510,-0.476753,0.354224,0.349956
3511,-0.075358,0.307192,0.241282
3512,0.063015,-0.054047,0.22155
3513,-0.039659,-0.201571,0.313808
3514,-0.317327,-0.31791,0.423831
3515,-0.432521,-0.322953,0.496392
3516,-0.41911,-0.311932,0.522008
3517,-0.196121,-0.632564,0.456175
3518,-0.160619,-0.56754,0.495063
3519,-0.17335,-0.564148,0.493736
3520,-0.142745,-0.455114,0.372261
3521,-0.179076,-0.078409,0.113984
3522,-0.211595,0.12372,0.169082
3523,-0.171968,0.603522,0.181714
3524,-0.051119,1.264609,-0.080217
3525,-0.302508,0.998029,-0.184829
3526,-0.308996,-0.047232,-0.149159
3527,-0.249294,0.528916,0.305324
3528,-0.40695,1.44098,0.717333
3529,-1.012613,2.182171,0.858278
3530,-0.647811,0.100815,0.626819
3531,-0.585983,-0.378165,0.577388
3532,-0.179876,-0.313657,0.639007
3533,-0.016385,-0.218748,0.748899
3534,0.32148,0.086713,0.756684
3535,-0.231468,0.465712,0.624303
3536,-0.387522,0.355484,0.470718
3537,-0.310497,0.02533,0.368665
3538,-0.351655,-0.209262,0.40136
3539,-0.377514,-0.37385,0.459524
3540,-0.383886,-0.452551,0.496517
3541,-0.218677,-0.020945,0.3748
3542,-0.163098,-0.041925,0.254379
3543,-0.128265,-0.131951,0.185429
3544,-0.114446,-0.113555,0.277644
3545,-0.13641,0.02161,0.264671
3546,-0.132519,0.057679,0.208456
3547,-0.134401,0.080874,0.198605
3548,-0.1386,0.008243,0.163404
3549,-0.023577,0.01025,0.082501
3550,0.363606,0.045398,-0.022463
3551,0.298301,0.225943,0.161461
3552,-0.018307,0.404288,0.187803
3553,-0.069141,0.44154,0.516278
