,userAcceleration.x,userAcceleration.y,userAcceleration.z
0,0.27912,-0.70224,0.226454
1,0.383372,-0.526499,-0.184368
2,0.09407,1.044807,-1.229875
3,-0.784305,1.503876,-1.132933
4,0.213016,-0.307986,-0.415471
5,0.300405,-0.539014,-0.403549
6,-0.502513,-0.248118,0.605506
7,-1.380864,0.213477,1.039649
8,-0.521302,1.009235,-0.283221
9,0.321566,-0.049885,0.298127
10,0.094357,-0.422377,0.886732
11,0.042812,-0.480248,0.852387
12,0.045267,-0.538833,0.520552
13,-0.057422,-0.33381,0.600028
14,-0.029794,-0.217935,0.686553
15,0.084351,0.236521,0.848222
16,0.096095,0.497255,0.422398
17,0.249089,0.252406,-0.008123
18,0.334085,0.158319,-0.433777
19,0.278966,0.10894,-0.187811
20,0.213167,0.141051,0.284021
21,0.222568,0.028584,0.385953
22,0.22008,-0.115593,0.078331
23,0.115272,-0.078373,0.07324
24,-0.4205,-0.085331,-0.588959
25,-0.172002,-0.238073,-0.602186
26,0.139708,0.121671,0.224512
27,0.155727,0.325099,0.122463
28,0.201644,0.401413,-0.195844
29,0.393725,0.406054,-0.557275
30,0.260281,0.464172,-0.650135
31,0.102324,0.405704,-0.310619
32,0.050893,0.456398,-0.268127
33,0.078012,0.53381,-0.342244
34,0.195007,0.724271,-0.433073
35,0.313726,0.863564,-0.393338
36,0.248462,0.818125,-0.341292
37,0.194466,0.60198,-0.340567
38,-0.025711,0.421147,-0.455048
39,-0.411466,0.392635,0.242008
40,-0.354278,0.357013,0.986672
41,-0.538878,0.299383,0.722957
42,-0.513515,0.044034,0.124494
43,-0.495772,0.056479,-0.200693
44,-0.708161,-0.288351,0.145584
45,-0.426726,-0.466623,0.579495
46,0.10488,-0.302008,0.658576
47,0.274679,-0.128562,0.547457
48,0.334149,0.057164,0.514951
49,0.269811,0.092916,0.53271
50,0.041385,-0.186852,0.625808
51,-0.050817,-0.377097,0.737494
52,-0.075073,-0.657803,0.787831
53,0.06714,-0.697033,0.803531
54,0.213495,-0.804773,0.745793
55,0.399612,-0.712616,0.548676
56,0.479439,-0.434995,-0.202767
57,0.309223,0.141381,-1.055076
58,-0.874763,1.136032,-1.123019
59,-0.807908,0.90891,-0.96329
60,-0.027619,-0.020028,-0.492965
61,-0.755097,0.044677,-0.07391
62,-1.157401,0.403313,0.080316
63,-0.916235,0.396141,0.641386
64,0.212625,-0.415823,0.085962
65,0.332374,-0.512217,0.713517
66,0.32883,-0.464105,0.841946
67,0.115289,-0.366587,0.553621
68,-0.049643,-0.026552,0.971394
69,0.016381,0.228823,1.094247
70,0.216747,0.453481,0.560566
71,0.270303,0.429769,0.18648
72,0.336642,0.337153,0.086097
73,0.160014,0.042453,-0.515218
74,0.097505,0.039353,-0.041171
75,0.108349,-0.097786,0.362831
76,0.124579,-0.179313,-0.086601
77,0.016504,-0.154686,-0.146615
78,-0.101249,-0.130649,-0.204243
79,-0.188111,-0.228399,-0.36115
80,0.060171,0.094361,0.185569
81,0.142373,0.180386,0.167472
82,0.108352,0.420022,-0.093855
83,0.364445,0.44353,-0.4664
84,0.51915,0.560171,-0.672081
85,0.173894,0.636584,-0.658781
86,0.020667,0.475074,-0.388583
87,-0.054464,0.509151,-0.462184
88,0.06281,0.542078,-0.677299
89,0.263416,0.777801,-0.625474
90,0.298815,0.798412,-0.498181
91,0.161247,0.568314,-0.445352
92,-0.077577,0.470037,-0.248767
93,-0.267021,0.565152,0.388752
94,-0.671245,0.713831,0.80667
95,-1.102339,0.504352,0.611819
96,-1.130188,0.119587,0.539183
97,-1.101764,-0.407488,-0.173551
98,-0.249306,-0.439312,0.339851
99,0.023422,-0.380732,0.645089
100,0.467017,-0.008287,0.856063
101,0.67509,0.257469,0.701749
102,0.504401,0.10398,0.610102
103,0.295831,-0.150838,0.73959
104,0.194399,-0.275983,0.834043
105,0.10277,-0.681168,0.977809
106,0.109582,-0.786136,0.99362
107,0.242167,-0.928773,0.954189
108,0.397699,-0.798453,0.57634
109,0.535845,-0.168576,-0.415326
110,0.258871,0.141683,-1.129868
111,-1.385837,1.931923,-2.011697
112,-0.285679,0.364586,-0.392065
113,0.086386,-0.786228,-0.418744
114,-0.019771,-1.020447,0.008253
115,-0.376255,-0.709116,1.234327
116,-0.805593,-0.430035,1.643181
117,-1.017617,0.988081,0.590007
118,0.021953,-0.319731,1.018223
119,0.077095,-0.498439,1.007624
120,0.314054,-0.345507,0.867069
121,0.413615,-0.18903,0.897577
122,0.447279,0.146175,0.938408
123,0.403036,0.307799,0.85361
124,0.239624,0.536391,0.370613
125,0.238012,0.334909,0.097572
126,0.230354,-0.030691,-0.66074
127,0.032744,-0.239314,-0.085149
128,-0.020488,-0.335036,-0.035179
129,-0.101213,-0.094048,-0.232961
130,-0.195612,-0.061895,-0.153754
131,-0.226547,-0.26334,-0.302814
132,-0.020829,-0.083696,-0.141361
133,0.135956,0.055484,0.275548
134,-0.005966,0.175945,0.079931
135,-0.011246,0.295337,-0.023982
136,0.084024,0.361643,-0.195911
137,0.543451,0.499943,-0.688398
138,0.131594,0.587832,-0.642031
139,0.034531,0.504469,-0.390317
140,0.115708,0.528539,-0.282553
141,0.208007,0.533942,-0.497613
142,0.229249,0.636567,-0.58763
143,0.225896,0.754919,-0.526095
144,0.05779,0.592122,-0.517384
145,-0.313025,0.366187,-0.208833
146,-0.431989,0.497386,0.625296
147,-0.477929,0.615322,1.163139
148,-1.017872,0.320221,0.45184
149,-1.13378,0.162247,0.240018
150,-1.047241,-0.257981,-0.028186
151,-0.395102,-0.251525,0.336133
152,-0.020549,-0.224924,0.536357
153,0.526543,0.030059,0.613846
154,0.466085,-0.089068,0.645543
155,0.464899,-0.195908,0.688703
156,0.347065,-0.203729,0.783748
157,0.251953,-0.381781,0.776094
158,0.143844,-0.662835,0.863001
159,0.055584,-0.805096,0.920581
160,0.097505,-0.776314,0.839766
161,0.246347,-0.738137,0.508362
162,0.500019,-0.461849,-0.02279
163,0.212189,0.297012,-1.324286
164,-1.450145,1.958655,-1.71929
165,-1.178674,0.630281,-0.489927
166,0.039042,-0.298261,-0.505125
167,0.247839,-0.731668,-0.339949
168,-0.806632,-0.478167,0.314321
169,-1.353244,0.49197,0.381647
170,0.503808,0.548435,0.412184
171,0.587772,-0.158466,0.800161
172,0.267962,-0.583565,1.018446
173,0.068725,-0.513087,0.584319
174,0.118461,-0.503446,0.45814
175,0.103717,-0.483244,0.385878
176,-0.117527,0.113243,0.90169
177,-0.070008,0.298614,0.870524
178,0.211927,0.498018,0.395837
179,0.368243,0.337845,0.0879
180,0.430909,0.13098,-0.97475
181,0.352024,0.100641,-0.641487
182,0.133561,0.090532,0.275666
183,0.137484,-0.06194,0.128729
184,0.101974,-0.101137,-0.095971
185,-0.000174,-0.054098,-0.096066
186,-0.095559,-0.117201,-0.246576
187,-0.135006,-0.257129,-0.196057
188,0.073766,-0.007909,0.087338
189,0.091299,0.052298,0.130908
190,0.07257,0.322741,-0.140691
191,0.26225,0.324734,-0.385315
192,0.294138,0.519683,-0.607088
193,0.074821,0.363761,-0.314523
194,0.085332,0.39335,-0.181279
195,0.079197,0.533188,-0.248358
196,0.098067,0.545828,-0.553211
197,0.129314,0.634472,-0.580766
198,0.111919,0.784222,-0.513009
199,0.117727,0.59747,-0.537769
200,0.149756,0.383306,-0.497017
201,-0.275614,0.394977,0.21603
202,-0.20765,0.485566,1.187995
203,-0.373463,0.445442,0.965794
204,-1.005469,0.231617,0.442702
205,-1.008013,-0.19901,-0.046546
206,-0.767878,-0.234193,-0.102888
207,-0.785111,-0.229648,-0.02314
208,0.272963,-0.301567,0.814007
209,0.498244,0.001695,0.676913
210,0.496893,0.029699,0.567821
211,0.448507,0.0564,0.541446
212,0.282042,-0.036482,0.702258
213,0.114095,-0.402681,0.824748
214,0.060646,-0.653998,0.937924
215,0.073477,-0.765892,0.933724
216,0.252113,-0.793991,0.871646
217,0.376912,-0.701707,0.53513
218,0.352598,-0.079318,-0.675749
219,0.081951,0.355675,-1.482501
220,-1.442034,1.733025,-1.487592
221,-0.654252,0.841077,-0.766111
222,-0.027689,-0.194074,-0.452
223,-0.423802,-0.46913,-0.16955
224,-1.515187,0.092879,0.130857
225,-0.744702,0.686845,0.440724
226,0.016739,-0.077359,1.071914
227,0.405553,-0.681879,0.909443
228,0.422002,-0.312849,0.946629
229,0.289576,-0.333827,0.795233
230,-0.064031,-0.005427,0.905473
231,0.085256,0.379561,1.131548
232,0.243054,0.424962,0.902444
233,0.303215,0.5247,0.286254
234,0.215056,0.272519,-0.562613
235,0.270152,0.104766,-0.242943
236,0.240971,0.079865,-0.15032
237,0.130151,-0.102007,0.01584
238,0.163779,-0.213729,0.359892
239,0.11033,-0.187059,0.119154
240,-0.00691,-0.087902,0.085994
241,-0.247551,-0.150948,-0.416192
242,-0.190017,-0.257767,-0.643499
243,0.057702,-0.013349,-0.11856
244,0.04203,0.351736,0.141123
245,0.062668,0.431625,-0.065969
246,0.34749,0.399858,-0.49025
247,0.276443,0.580871,-0.616935
248,0.095582,0.452539,-0.382299
249,0.121922,0.479016,-0.246138
250,0.207784,0.642811,-0.42846
251,0.274066,0.849344,-0.574858
252,0.164852,0.885723,-0.484831
253,-0.021166,0.660232,-0.483754
254,-0.137782,0.25215,-0.57248
255,-0.318729,0.384514,0.425861
256,-0.294767,0.599539,1.096819
257,-0.760436,0.549278,0.679275
258,-0.953765,0.403188,0.590227
259,-1.089846,-0.385171,-0.105733
260,-0.764432,-0.376734,0.150858
261,-0.152051,-0.323141,0.498277
262,0.445709,-0.210434,0.669688
263,0.492917,0.031401,0.54761
264,0.502901,-0.006059,0.606737
265,0.475404,0.019018,0.64638
266,0.177076,-0.404985,0.837313
267,0.145008,-0.481499,0.909485
268,0.0728,-0.725535,0.942147
269,0.108312,-0.872482,0.894129
270,0.184943,-0.848718,0.748149
271,0.276091,-0.79465,0.5627
272,0.171192,0.167707,-1.357259
273,-0.35135,0.899741,-1.755158
274,-1.717625,2.398835,-1.412652
275,-0.358156,0.422911,-0.355752
276,0.004544,-0.602755,-0.37753
277,-0.372174,-0.825698,0.072531
278,-1.085975,-0.644825,0.626024
279,-0.964976,0.410927,0.653281
280,0.61022,0.213689,0.786065
281,0.609137,-0.177125,1.215492
282,0.247362,-0.449566,0.893349
283,0.106871,-0.324625,0.696617
284,0.028985,-0.234882,0.773471
285,0.109883,0.1592,0.945291
286,0.157087,0.348693,0.542771
287,0.205689,0.35244,0.376934
288,0.274144,0.266105,0.130592
289,0.314223,-0.0203,-0.578263
290,0.225083,-0.021234,-0.22698
291,0.097054,-0.093536,0.258425
292,-0.043905,-0.09727,-0.242497
293,-0.13655,-0.091553,-0.268301
294,-0.206165,-0.073359,-0.297808
295,0.050142,0.041687,-0.174523
296,0.182903,0.020817,0.074471
297,0.105128,0.106906,0.077166
298,0.026865,0.288536,-0.129836
299,0.229969,0.337363,-0.354546
300,0.54853,0.436594,-0.625997
301,0.341419,0.724291,-0.529757
302,-0.00038,0.460518,-0.224931
303,-0.070745,0.479178,-0.299599
304,-0.106067,0.493381,-0.573778
305,0.082405,0.683247,-0.656208
306,0.196893,0.746396,-0.559496
307,0.133836,0.699183,-0.497978
308,-0.198168,0.419976,-0.013502
309,-0.219574,0.389407,0.059589
310,-0.34494,0.493264,0.993219
311,-0.894826,0.555202,0.641977
312,-1.129964,0.103385,0.383726
313,-0.829457,-0.143111,-0.239422
314,-0.625233,-0.183474,0.022401
315,-0.22563,-0.378928,0.47909
316,0.309689,-0.198611,0.945688
317,0.571124,0.083382,0.754009
318,0.544248,0.010035,0.619708
319,0.387375,-0.009538,0.680119
320,0.241147,-0.199481,0.790207
321,0.137017,-0.486744,0.952308
322,0.093681,-0.772225,0.9675
323,0.19548,-0.868459,0.991445
324,0.329472,-0.842783,0.74899
325,0.42867,-0.276919,-0.0294
326,0.188049,0.0287,-0.645218
327,-1.228682,1.354505,-1.846251
328,-0.345398,0.72749,-0.546231
329,0.182919,-0.531194,-0.2898
330,0.277691,-0.930241,-0.235558
331,-0.52182,-0.578595,0.404051
332,-1.155131,0.551676,0.427104
333,-0.301995,1.081053,0.139715
334,0.364446,-0.256061,0.97188
335,0.178342,-0.514439,0.799185
336,0.266982,-0.507238,0.667948
337,0.154115,-0.298655,0.685378
338,-0.057045,0.111919,0.986336
339,0.079945,0.423792,0.956692
340,0.218352,0.499246,0.580012
341,0.31491,0.313069,0.187731
342,0.268301,-0.022105,-0.717304
343,0.234185,-0.049186,-0.163007
344,0.088683,-0.082505,0.226117
345,0.120306,-0.165559,0.196677
346,0.057866,-0.15215,0.095118
347,-0.093956,-0.1225,-0.060281
348,-0.355383,-0.267531,-0.583645
349,0.0029,-0.09041,-0.461477
350,0.208375,0.106397,0.269645
351,0.171759,0.147374,0.262424
352,0.067569,0.253281,0.014672
353,0.204136,0.267633,-0.243952
354,0.264798,0.339753,-0.412184
355,0.007259,0.555406,-0.511902
356,0.039894,0.471862,-0.293539
357,0.101236,0.573722,-0.200232
358,0.100229,0.560153,-0.43814
359,0.121175,0.711206,-0.545737
360,0.139016,0.829876,-0.501786
361,0.065466,0.752271,-0.623107
362,0.005932,0.350089,-0.695998
363,-0.165365,0.152429,-0.106854
364,-0.210491,0.415503,1.263584
365,-0.523015,0.490075,0.907222
366,-1.01332,0.388699,0.588437
367,-1.089706,-0.032369,0.103055
368,-0.614615,-0.202896,0.038487
369,-0.287241,-0.195995,0.326778
370,0.432077,0.002081,0.726011
371,0.397107,0.029433,0.633774
372,0.483488,-0.106942,0.629129
373,0.422053,-0.154122,0.719532
374,0.299347,-0.30291,0.830918
375,0.196987,-0.45574,0.879878
376,0.159323,-0.658284,0.870229
377,0.09794,-0.758222,0.868709
378,0.162497,-0.710112,0.655938
379,0.360741,-0.591295,0.165639
380,0.268991,-0.157727,-1.00259
381,-0.580263,1.080378,-1.207873
382,-1.67282,1.217756,-0.67477
383,-0.391947,0.044149,-0.502643
384,0.207932,-0.420317,-0.516029
385,0.061383,-0.699062,-0.05325
386,-0.664903,-0.44851,0.584019
387,-0.992917,-0.173405,0.739381
388,-0.360078,1.715858,-0.271765
389,0.436926,-0.232009,1.187487
390,0.289894,-0.502941,1.000652
391,0.203978,-0.446741,0.644089
392,0.164606,-0.474144,0.558343
393,0.095513,-0.463325,0.535764
394,-0.064596,-0.244583,0.672896
395,-0.12751,0.543956,0.922529
396,0.125262,0.499596,0.515237
397,0.269875,0.400851,0.326764
398,0.335181,0.137058,-0.432115
399,0.328879,0.135327,-0.493891
400,0.22176,0.056396,0.339767
401,0.213787,-0.174556,0.110949
402,0.150792,-0.173654,0.031522
403,-0.043811,-0.0844,-0.131248
404,-0.289102,-0.220086,-0.785774
405,-0.212761,-0.225137,-0.640371
406,0.127493,0.169815,0.240629
407,0.144658,0.358732,0.007663
408,0.169913,0.449771,-0.208749
409,0.378068,0.391693,-0.552213
410,0.116254,0.550067,-0.55746
411,0.029165,0.426323,-0.427601
412,0.073278,0.527003,-0.241245
413,0.049661,0.565219,-0.492294
414,0.108314,0.601917,-0.749131
415,0.138676,0.746742,-0.628351
416,0.076758,0.649959,-0.56346
417,0.013442,0.468709,-0.378654
418,-0.17421,0.637134,0.508511
419,-0.204248,0.678959,1.222146
420,-0.761843,0.575151,0.753074
421,-1.149836,0.40256,0.504462
422,-1.006788,-0.286509,-0.130246
423,-0.880152,-0.29724,0.094388
424,0.070924,-0.325542,0.571649
425,0.334508,-0.27992,0.72681
426,0.552017,0.175843,0.767154
427,0.51934,0.070119,0.714821
428,0.359151,-0.069971,0.776474
429,0.162024,-0.357628,0.91037
430,0.053608,-0.737709,1.021747
431,0.015711,-0.840503,1.064515
432,0.216012,-0.924666,1.057115
433,0.339733,-0.85812,0.681242
434,0.374364,-0.449297,0.075895
435,-0.172618,0.384936,-1.326903
436,-1.855036,2.491537,-2.096911
437,-0.516055,0.986856,-0.701901
438,0.180518,-0.305058,-0.330697
439,0.282941,-0.899047,-0.075474
440,-0.466922,-0.642702,0.556065
441,-0.716715,-0.405712,0.626504
442,-0.781204,1.253499,0.183011
443,0.206964,0.099503,0.371081
444,0.286026,-0.516371,1.018902
445,0.233956,-0.632581,0.798587
446,0.32171,-0.542814,0.499752
447,0.093633,-0.308855,0.653788
448,-0.073647,-0.074127,0.866032
449,-0.018861,0.414045,0.8491
450,0.189679,0.412387,0.433586
451,0.295371,0.336172,0.240861
452,0.2398,0.086468,-0.521233
453,0.230446,0.083328,-0.577538
454,0.142804,0.088595,0.199323
455,0.153245,-0.024007,0.017787
456,0.117304,-0.044582,0.054695
457,0.090386,-0.085221,0.049541
458,-0.027386,-0.155677,-0.118006
459,-0.099369,-0.208174,-0.219782
460,0.035539,0.000793,0.019033
461,0.079704,0.278998,0.105576
462,0.027658,0.425105,-0.158482
463,0.326167,0.346503,-0.582386
464,0.310773,0.497813,-0.654478
465,0.103761,0.337282,-0.463219
466,0.056478,0.467601,-0.13933
467,0.058225,0.659136,-0.150378
468,0.174926,0.797333,-0.397564
469,0.201963,0.802964,-0.596411
470,0.133038,0.737801,-0.608618
471,-0.059497,0.383283,-0.599209
472,-0.386255,0.328466,0.36035
473,-0.38617,0.47973,1.112705
474,-0.460251,0.398782,1.004562
475,-0.925972,0.1834,0.432756
476,-0.931775,-0.055137,-0.087902
477,-0.757131,-0.310959,0.137008
478,-0.154778,-0.285546,0.473204
479,0.382108,-0.199282,0.854488
480,0.467061,0.081924,0.537522
481,0.515337,0.045858,0.559677
482,0.4665,-0.009252,0.678359
483,0.287924,-0.164727,0.831286
484,0.09882,-0.396967,0.907847
485,0.034255,-0.626617,0.899857
486,0.036344,-0.700968,0.923683
487,0.189661,-0.771985,0.819972
488,0.310067,-0.725093,0.490851
489,0.269993,-0.436352,-0.278426
490,-0.221833,0.461202,-1.544604
491,-1.880195,2.083473,-1.444175
492,-0.550577,0.673949,-0.75538
493,0.241199,-0.33044,-0.446394
494,0.192612,-0.798297,-0.045455
495,-0.394322,-0.534426,0.510393
496,-0.820591,0.505624,0.824586
497,-0.756065,1.457723,0.155716
498,-0.140747,0.574475,-0.081406
499,0.136314,-0.68007,0.868473
500,0.28923,-0.671529,0.595188
501,0.273333,-0.60852,0.516
502,0.158727,-0.495049,0.549524
503,-0.179859,0.304844,1.143596
504,-0.036206,0.508832,0.826245
505,0.253929,0.389658,0.395461
506,0.405349,0.23382,-0.043295
507,0.438754,0.045248,-0.658459
508,0.236741,0.072387,0.189928
509,0.13688,0.037715,0.236305
510,0.130217,-0.065183,0.245754
511,0.023616,-0.118046,-0.013942
512,-0.209006,-0.216533,-0.455363
513,-0.158038,-0.270065,-0.387828
514,0.152861,0.111578,0.086995
515,0.104321,0.408125,0.095346
516,0.111033,0.391823,-0.302525
517,0.390925,0.325054,-0.530981
518,0.17006,0.56965,-0.5316
519,0.081791,0.456612,-0.321673
520,0.04227,0.601127,0.028368
521,0.083943,0.540181,-0.254831
522,0.161084,0.532496,-0.555089
523,0.135072,0.687432,-0.559091
524,0.016644,0.758229,-0.63484
525,0.05399,0.491225,-0.606032
526,-0.080246,0.257906,-0.453244
527,-0.242126,0.467197,0.864001
528,-0.298153,0.436805,1.063479
529,-0.795637,0.423561,0.617704
530,-1.188884,0.223123,0.20468
531,-1.180585,-0.233749,-0.048189
532,-0.668464,-0.375337,0.210629
533,-0.150423,-0.27014,0.557446
534,0.255099,-0.214951,0.853746
535,0.558725,0.231777,0.71342
536,0.46302,-0.031846,0.615027
537,0.380239,-0.132676,0.694583
538,0.277937,-0.213,0.834493
539,0.069246,-0.755105,0.983181
540,0.070395,-0.743989,0.996345
541,0.099625,-0.9141,0.932902
542,0.3267,-0.769096,0.519717
543,0.347184,-0.779071,0.485045
544,0.266875,-0.050395,-1.149495
545,-0.954025,1.753856,-2.021443
546,-1.607066,1.565972,-0.772409
547,-0.214368,-0.015443,-0.485734
548,0.247703,-0.845085,-0.255812
549,-0.187823,-0.840903,0.474277
550,-0.751134,-0.471184,0.778124
551,-1.056976,1.238834,0.294393
552,0.108192,0.893674,0.013462
553,0.421866,-0.456351,1.235677
554,0.222309,-0.613216,0.892491
555,0.217578,-0.635493,0.82055
556,0.329985,-0.546031,0.511239
557,-0.140774,0.379716,1.133707
558,-0.133189,0.578184,1.104543
559,0.201415,0.365659,0.318846
560,0.270225,0.258191,0.183045
561,0.276699,-0.002443,-1.037677
562,0.178378,0.094137,0.154313
563,0.172946,0.065234,0.348569
564,0.204108,-0.025932,0.11282
565,0.064331,-0.067036,0.017151
566,-0.013753,-0.100136,-0.045249
567,-0.252148,-0.338805,-0.468719
568,-0.030281,-0.03562,0.008057
569,0.037459,0.208775,0.209471
570,0.124668,0.265532,-0.100832
571,0.476966,0.28114,-0.560286
572,0.582173,0.520971,-0.490049
573,0.156662,0.50527,-0.57855
574,0.008513,0.643956,-0.136635
575,0.001229,0.589896,-0.327212
576,-0.026759,0.622295,-0.721273
577,0.108946,0.739416,-0.579356
578,0.144826,0.785865,-0.552631
579,0.059264,0.503393,-0.409089
580,-0.22885,0.408522,-0.032779
581,-0.349298,0.637838,1.28245
582,-0.468095,0.542847,1.159749
583,-1.124953,0.373031,0.485831
584,-1.113746,-0.271171,-0.030452
585,-0.953216,-0.361374,0.037828
586,-0.648515,-0.410037,0.21289
587,0.133361,-0.355454,0.62318
588,0.450504,-0.062487,0.960216
589,0.591181,0.158599,0.920138
590,0.428808,0.023864,0.647199
591,0.351567,-0.074645,0.723762
592,0.257134,-0.180733,0.804009
593,0.095078,-0.683698,0.969043
594,0.118088,-0.74983,1.000278
595,0.153512,-0.822397,0.984454
596,0.382716,-0.679044,0.458753
597,0.466283,-0.489014,0.046093
598,0.430193,-0.160603,-0.555322
599,-1.876817,2.26381,-1.533982
600,-1.884532,2.258569,-1.531717
601,0.078734,-0.781852,-0.218985
602,-0.206766,-0.830995,0.254376
603,-0.436573,-0.676588,0.52987
604,-0.879286,1.103541,0.322021
605,-0.78084,1.45169,0.064434
606,0.074903,-0.176644,0.925956
607,0.11822,-0.642871,0.902014
608,0.33709,-0.63317,0.653424
609,0.359714,-0.657953,0.54949
610,-0.073895,0.045858,1.186649
611,-0.067496,0.593154,1.320043
612,0.073356,0.629548,0.970095
613,0.366716,0.357559,0.272853
614,0.305758,0.126099,-0.737791
615,0.303814,-0.009543,-0.221614
616,0.167606,-0.02714,0.390643
617,0.088346,-0.029925,0.141917
618,-0.006821,-0.066469,-0.08374
619,-0.192357,-0.13631,-0.265923
620,-0.315302,-0.478112,-0.70365
621,0.012622,0.06204,0.010622
622,0.216286,0.08501,0.331833
623,0.154173,0.246262,0.083992
624,0.133658,0.410828,-0.223475
625,0.402487,0.363694,-0.60208
626,0.351809,0.642195,-0.545925
627,0.190217,0.518368,-0.533605
628,0.071513,0.541904,-0.110685
629,0.093823,0.555842,-0.289295
630,0.119139,0.606114,-0.415346
631,0.197927,0.75707,-0.458277
632,0.03605,0.735764,-0.548056
633,-0.082844,0.408267,-0.49368
634,-0.32115,0.29899,-0.305872
635,-0.311287,0.580561,1.19094
636,-0.448664,0.433044,0.923649
637,-0.875417,0.341314,0.508331
638,-1.082941,-0.123703,0.034209
639,-1.03726,-0.239626,0.004134
640,-0.791818,-0.335959,0.171911
641,0.334909,-0.208239,0.94124
642,0.524167,-0.024984,0.905844
643,0.56869,0.093976,0.760493
644,0.459765,-0.098982,0.602327
645,0.369145,-0.136964,0.673704
646,0.300262,-0.185951,0.785086
647,0.089758,-0.585851,0.96556
648,0.065922,-0.702076,1.001392
649,0.16912,-0.803138,0.959925
650,0.285336,-0.675224,0.574128
651,0.345507,-0.339541,-0.156386
652,-0.238301,0.440974,-1.614916
653,-0.872168,1.216422,-1.965471
654,-1.376147,1.669402,-1.038441
655,0.06992,-0.354302,-0.378931
656,0.204624,-0.872976,0.001603
657,-0.160534,-0.776186,0.347318
658,-1.31748,0.338226,0.749194
659,-0.79383,1.1051,0.03921
660,0.50247,0.033458,0.638745
661,0.507088,-0.484217,1.225048
662,0.346066,-0.548946,0.856855
663,0.322898,-0.452106,0.655927
664,0.077351,-0.17291,0.8197
665,-0.041415,0.35647,1.146236
666,0.044656,0.539319,0.775088
667,0.208462,0.371051,0.368592
668,0.192367,0.241303,-0.066092
669,0.176946,-0.004117,-0.608053
670,0.204258,0.083315,-0.278697
671,0.146017,-0.034153,0.341768
672,0.159955,-0.08951,0.271457
673,0.125136,-0.124059,0.013949
674,0.018315,-0.121926,-0.075097
675,-0.033621,-0.101427,-0.204064
676,-0.176082,-0.27017,-0.367879
677,-0.012253,0.018297,0.125916
678,0.060818,0.114858,0.160635
679,0.083078,0.341816,-0.209706
680,0.335279,0.300953,-0.419044
681,0.281969,0.697959,-0.51709
682,0.101654,0.573294,-0.495865
683,0.045994,0.516173,-0.308746
684,-0.097398,0.496,-0.56883
685,-0.109095,0.60084,-0.721981
686,0.085269,0.703457,-0.529024
687,0.08431,0.667475,-0.485163
688,-0.064261,0.515632,-0.439093
689,-0.236926,0.545157,0.977882
690,-0.342696,0.44624,0.8993
691,-0.878408,0.436114,0.621551
692,-0.997999,-0.01649,0.133291
693,-0.759747,-0.117368,0.000696
694,-0.701213,-0.082554,0.195373
695,0.10628,-0.366938,0.70825
696,0.306237,-0.204088,0.895224
697,0.452616,0.045654,0.855066
698,0.429986,-3.30E-05,0.680226
699,0.326565,-0.042944,0.781506
700,0.246876,-0.103953,0.8613
701,0.023143,-0.724114,0.980879
702,0.07018,-0.760922,1.036663
703,0.189146,-0.85148,0.982122
704,0.238464,-0.878452,0.79981
705,0.377077,-0.623313,0.374068
706,-0.36825,0.685142,-2.115814
707,-0.798728,1.806404,-1.598111
708,-0.913553,1.384206,-0.721333
709,0.059824,-0.471122,-0.332964
710,0.097415,-0.646013,-0.198727
711,-1.105368,-0.564535,0.443063
712,-1.150267,0.194731,-0.094721
713,-0.01964,0.735742,0.370741
714,0.420606,-0.009173,1.122108
715,0.538547,-0.1746,1.129243
716,0.378848,-0.26936,0.83894
717,0.246728,-0.225678,0.693958
718,0.03577,0.051248,0.839524
719,0.136221,0.380463,0.774681
720,0.196144,0.613959,0.518317
721,0.235879,0.441019,0.094632
722,0.191621,0.159493,-0.481697
723,0.325924,0.158968,-0.066143
724,0.208345,-0.049722,0.036188
725,0.182747,-0.115651,0.424756
726,0.133512,-0.150795,0.283324
727,0.043597,-0.064781,0.052313
728,-0.264018,-0.091882,-0.275938
729,-0.301481,-0.27576,-0.606077
730,0.128689,0.083916,-0.022889
731,0.134162,0.137671,0.178725
732,0.102903,0.173468,0.094687
733,0.054396,0.196228,-0.022109
734,0.173142,0.184405,-0.345521
735,0.233228,0.246393,-0.58878
736,0.067717,0.434121,-0.39807
737,0.14661,0.462122,-0.204556
738,0.150892,0.493456,-0.286898
739,0.137551,0.502451,-0.459308
740,0.14131,0.757088,-0.592705
741,0.116408,0.774094,-0.554256
742,0.131451,0.701722,-0.449133
743,-0.058229,0.566665,0.417107
744,-0.122802,0.676041,1.084862
745,-0.495435,0.479947,0.817761
746,-0.898365,0.475578,0.480606
747,-0.946151,0.388552,0.274683
748,-0.588426,-0.037874,0.207777
749,-0.297488,-0.064642,0.466247
750,-0.091062,-0.125044,0.484866
751,0.412867,0.070137,0.636688
752,0.423118,0.032516,0.694622
753,0.417751,-0.060312,0.724783
754,0.27416,-0.186113,0.813768
755,0.110016,-0.382058,0.893709
756,0.041458,-0.633315,0.885703
757,-0.005768,-0.735726,0.919911
758,0.088023,-0.847509,0.844814
759,0.239519,-0.778327,0.726517
760,0.151693,-0.571967,0.027016
761,-0.097564,0.363323,-1.652042
762,-0.534119,1.625294,-0.680587
763,-0.725978,0.805192,-0.792022
764,0.038864,0.052623,-0.446966
765,0.382242,-0.466139,-0.322847
766,-0.062792,-0.574726,-0.079181
767,-1.259872,0.115159,0.675065
768,-1.232371,0.110865,0.625255
769,0.481366,1.532833,0.37114
770,0.066558,-0.552122,0.767931
771,0.020572,-0.57319,0.646502
772,0.069178,-0.58877,0.710178
773,0.169917,-0.616868,0.649228
774,0.093854,-0.517615,0.68622
775,-0.108861,-0.214657,0.843356
776,-0.051069,0.514818,0.684784
777,0.116253,0.397255,0.506311
778,0.270572,0.329679,0.331723
779,0.347345,0.165923,-0.385194
780,0.242881,0.11569,-0.018415
781,0.17827,0.066051,0.176194
782,0.111221,-0.101842,0.304342
783,0.127952,-0.135976,0.203817
784,0.130165,-0.144631,0.136581
785,0.048214,-0.011475,-0.16275
786,0.074484,0.039895,-0.091387
787,0.087519,-0.005418,0.003051
788,0.048498,0.085797,-0.134947
789,0.005325,0.44066,-0.442964
790,0.385026,0.517556,-0.670291
791,0.350311,0.681025,-0.435801
792,0.086598,0.465802,-0.269509
793,-0.265189,0.406732,-0.522672
794,-0.21931,0.353098,-0.651319
795,-0.091513,0.435883,-0.720232
796,0.208779,0.692858,-0.612038
797,0.179093,0.611212,-0.580589
798,0.098603,0.563285,-0.545319
799,-0.334206,0.716364,0.844629
800,-0.252576,0.635194,1.287396
801,-0.962274,0.5556,0.683608
802,-1.239524,0.178886,0.526507
803,-1.151468,-0.110797,0.477517
804,-0.652268,-0.223075,-0.023432
805,-0.089787,-0.309759,0.374813
806,0.41838,-0.131815,0.792257
807,0.602245,0.112139,0.804966
808,0.520889,0.096371,0.708174
809,0.381998,0.021767,0.720016
810,0.18456,-0.265901,0.891156
811,0.089694,-0.709016,0.981981
812,0.075186,-0.827202,1.136136
813,0.191821,-0.891139,1.100083
814,0.358059,-0.845894,0.896603
815,0.479993,-0.502401,0.298411
816,0.477139,-0.226946,-0.331788
817,-1.343831,2.097735,-1.813714
818,-0.955037,1.24552,-0.714318
819,-0.322143,0.519372,-0.282665
820,0.258456,-0.886515,-0.362219
821,-0.23113,-0.886973,0.947177
822,-0.782062,-0.686218,1.248399
823,-1.295784,1.067326,0.494407
824,-0.153179,2.00584,-0.940054
825,0.096363,-0.568166,1.529221
826,0.012355,-0.675343,1.044351
827,0.257119,-0.745197,0.710172
828,0.367781,-0.680864,0.598618
829,0.001973,-0.158468,0.807531
830,-0.19339,0.491543,1.306515
831,-0.06477,0.610562,1.106073
832,0.329967,0.321251,0.231101
833,0.330428,-0.030588,-0.954572
834,0.393724,-0.003897,-0.377244
835,0.285155,0.012575,0.021323
836,0.116104,0.014785,0.150437
837,0.079953,0.010747,0.151053
838,0.072765,-0.02091,0.122034
839,0.101779,-0.022557,-0.205182
840,0.038195,-0.059262,-0.20158
841,-0.019904,-0.119414,-0.163574
842,0.003224,0.338991,0.048964
843,4.50E-05,0.425917,-0.044879
844,0.468043,0.40244,-0.43694
845,0.148969,0.490304,-0.689368
846,0.075162,0.403523,-0.614014
847,-0.018754,0.550597,-0.182297
848,-0.015851,0.720353,-0.309061
849,0.044119,0.806934,-0.380937
850,0.191291,0.833663,-0.498078
851,0.071716,0.599793,-0.518282
852,-0.112717,0.430073,-0.585038
853,-0.44712,0.380831,0.98334
854,-0.51335,0.368788,0.965737
855,-0.886427,0.272508,0.488346
856,-1.089865,0.004653,-0.016226
857,-0.960604,-0.171699,-0.089691
858,-0.560471,-0.267193,0.366912
859,-0.054594,-0.330857,0.777737
860,0.528521,-0.054073,0.890153
861,0.562484,0.084413,0.594473
862,0.482718,-0.089614,0.668026
863,0.304686,-0.047429,0.798533
864,0.202011,-0.160431,0.824424
865,0.094444,-0.407169,0.937903
866,0.056835,-0.748446,1.025905
867,0.091962,-0.801716,1.018468
868,0.176834,-0.904298,1.003984
869,0.432958,-0.329747,-0.045807
870,0.45638,-0.345772,-0.091359
871,-0.692286,1.310395,-1.828399
872,-1.499215,1.725266,-1.088469
873,-0.56746,0.916708,-0.590488
874,0.230328,-0.634487,-0.26663
875,-0.260785,-0.593748,0.640401
876,-0.769281,-0.398065,0.997798
877,-1.073119,0.539853,0.83785
878,-0.185606,1.253196,-0.514144
879,0.193246,-0.493065,1.041377
880,0.154067,-0.613388,0.951776
881,0.265653,-0.617942,0.764549
882,0.263734,-0.481066,0.773627
883,-0.015281,0.034231,1.088801
884,0.055803,0.436609,1.035666
885,0.224647,0.513308,0.620046
886,0.346992,0.369248,0.179431
887,0.333266,0.103328,-1.093719
888,0.361598,-0.011492,-0.179881
889,0.166712,0.036195,0.048947
890,0.140321,0.043462,-0.071974
891,0.068131,-0.011374,-0.003306
892,-0.031478,-0.129067,-0.100307
893,-0.067724,-0.172525,-0.100448
894,-0.050016,-0.27572,0.058376
895,-0.134269,-0.003565,0.157349
896,-0.10584,0.411364,-0.127646
897,0.373257,0.457527,-0.670123
898,0.319231,0.531419,-0.50135
899,0.128095,0.432158,-0.289156
900,0.045239,0.491117,-0.29337
901,0.061305,0.661588,-0.225661
902,0.257038,0.980743,-0.321035
903,0.373458,0.871985,-0.26794
904,0.117126,0.75319,-0.3446
905,-0.143933,0.392029,-0.46247
906,-0.514406,0.388101,-0.165615
907,-0.501362,0.347767,1.084476
908,-0.605333,0.38147,0.84923
909,-0.877628,0.168497,0.473495
910,-0.966317,-0.090818,0.088647
911,-0.76784,-0.198532,0.069728
912,-0.585407,-0.185976,0.310719
913,0.125745,-0.254371,0.780673
914,0.38969,0.065041,0.658954
915,0.348322,-0.005205,0.615937
916,0.363002,-0.048608,0.668446
917,0.230016,-0.101265,0.873485
918,0.16683,-0.258964,0.878335
919,0.113986,-0.397015,0.912993
920,0.050017,-0.887907,1.007788
921,0.168786,-0.882342,0.976706
922,0.290357,-0.857941,0.926395
923,0.380131,-0.255222,-0.301089
924,0.192711,0.142461,-1.118358
925,-0.227866,0.680815,-1.766959
926,-0.254246,0.691408,-0.484068
927,0.007817,0.084335,-0.318977
928,0.213218,-0.796063,-0.163866
929,0.098689,-0.83938,0.404316
930,-0.483035,-0.41452,1.030599
931,-0.771057,0.844983,1.003744
932,-0.616674,1.471652,-0.746951
933,-0.039821,-0.534939,0.863543
934,0.259781,-0.660054,0.866481
935,0.253827,-0.469239,0.961646
936,0.190186,-0.350812,0.966573
937,0.057285,0.156671,1.023335
938,0.081011,0.281793,0.922702
939,0.13259,0.386388,0.684129
940,0.215918,0.097784,0.193924
941,0.407312,0.001893,-0.538691
942,0.293564,-0.145381,0.045501
943,0.004426,-0.021712,0.155924
944,-0.04097,0.146751,-0.126129
945,-0.092946,0.035389,-0.187144
946,-0.034469,-0.160128,-0.150694
947,0.122142,-0.086868,-0.060914
948,0.109152,-0.011887,0.135881
949,0.009304,0.151241,0.10251
950,0.097848,0.374528,-0.248732
951,0.473979,0.359501,-0.636382
952,0.191837,0.458642,-0.472314
953,0.018581,0.397374,-0.146557
954,0.042913,0.520508,-0.025068
955,0.087303,0.584009,-0.196112
956,0.152967,0.639623,-0.622612
957,0.127861,0.659132,-0.612377
958,0.074709,0.693098,-0.565525
959,-0.047422,0.378996,-0.601731
960,-0.057244,0.353404,-0.525603
961,-0.379977,0.519172,0.966845
962,-0.596963,0.392538,0.695238
963,-0.623795,0.383594,0.787346
964,-1.13501,0.064748,0.209494
965,-0.903585,-0.349561,0.077826
966,-0.582776,-0.372634,0.310332
967,-0.319575,-0.382702,0.503249
968,0.54421,0.205956,0.799573
969,0.435028,0.18511,0.718806
970,0.419954,0.043095,0.690302
971,0.275481,0.033308,0.811202
972,0.063739,-0.181099,0.931566
973,0.011849,-0.508984,1.004014
974,-0.056563,-0.883159,1.037484
975,0.172074,-0.820688,1.008557
976,0.359932,-0.766985,0.758177
977,0.494778,-0.571207,0.403152
978,0.414317,0.032465,-0.643232
979,-1.736842,2.03013,-2.363499
980,-1.78314,2.336756,-1.534546
981,-0.407728,0.113957,-0.190337
982,0.291238,-1.100305,-0.315938
983,-0.008495,-1.000541,0.131111
984,-1.018293,-0.121314,1.388333
985,-0.495438,1.71031,0.744154
986,0.217829,0.683066,-0.314322
987,0.134503,-0.614095,1.094276
988,0.109986,-0.635282,0.8627
989,0.220147,-0.555842,0.736996
990,0.173235,-0.392347,0.714968
991,-0.082995,0.142157,0.965627
992,-0.056502,0.597309,1.052568
993,0.169529,0.497838,0.576585
994,0.331415,0.245203,0.220822
995,0.360794,-0.014004,-0.750252
996,0.262265,-0.07598,0.216081
997,0.055351,-0.095403,0.402936
998,0.053275,0.054238,0.090421
999,0.000668,-0.018913,-0.110823
1000,-0.081593,-0.112718,-0.343672
1001,-0.137449,-0.268966,-0.339469
1002,-0.044257,-0.144744,-0.214686
1003,0.127224,-0.034112,0.187071
1004,0.080509,0.253982,-0.140887
1005,0.239736,0.277696,-0.34449
1006,0.394935,0.330701,-0.582572
1007,0.019215,0.355192,-0.511373
1008,-0.02602,0.348195,-0.2721
1009,0.030364,0.417329,-0.042045
1010,0.051508,0.584213,-0.383842
1011,0.078476,0.687627,-0.482973
1012,0.109775,0.761151,-0.450595
1013,0.035073,0.501231,-0.501657
1014,-0.059017,0.305933,-0.544284
1015,-0.214518,0.186982,-0.418736
1016,-0.314361,0.487432,0.821583
1017,-0.513587,0.419423,0.742279
1018,-0.738216,0.401127,0.655826
1019,-0.963999,-0.154112,0.030294
1020,-0.781019,-0.250286,0.107236
1021,-0.050779,-0.292373,0.498746
1022,0.337958,-0.157607,0.62217
1023,0.391838,-0.05073,0.660793
1024,0.413515,-0.090027,0.641925
1025,0.347965,-0.044428,0.791792
1026,0.264495,-0.030886,0.870933
1027,0.046233,-0.379541,0.914143
1028,-0.030758,-0.642044,1.01727
1029,0.00535,-0.806856,1.043056
1030,0.252808,-0.824979,0.964458
1031,0.322282,-0.750086,0.503618
1032,0.286578,-0.25648,-0.204912
1033,-0.407462,0.645121,-1.577193
1034,-1.844464,2.104327,-1.518322
1035,-1.018876,1.575091,-1.097198
1036,0.132486,-0.378714,-0.125666
1037,-0.297567,-0.492955,0.12019
1038,-1.280934,-0.033831,0.589862
1039,-1.214032,1.371088,0.012774
1040,0.181593,-0.207363,0.758526
1041,0.534906,-0.797792,1.206161
1042,0.525029,-0.707354,1.144762
1043,0.280712,-0.5298,0.834479
1044,0.160742,-0.397467,0.67035
1045,-0.218994,0.067339,1.0829
1046,-0.257401,0.633223,1.430461
1047,-0.061497,0.633884,1.054135
1048,0.314671,0.262348,0.215579
1049,0.365229,0.150943,-0.812966
1050,0.353888,0.083702,-0.910086
1051,0.223425,0.129001,0.1299
1052,0.165288,-0.010014,0.373723
1053,0.051045,-0.068624,0.276209
1054,-0.050961,-0.139523,0.023016
1055,-0.136437,-0.077283,-0.164121
1056,0.054432,-0.114389,-0.058979
1057,-0.025432,-0.265501,-0.08771
1058,-0.035468,0.218264,-0.045093
1059,0.005971,0.341908,-0.070572
1060,0.150247,0.349717,-0.243408
1061,0.277157,0.624476,-0.355896
1062,0.05969,0.449952,-0.473549
1063,-0.013428,0.346287,-0.371103
1064,-0.030247,0.419472,-0.260715
1065,0.039868,0.410755,-0.336146
1066,0.109825,0.494819,-0.417752
1067,0.017797,0.819717,-0.497507
1068,0.056741,0.680937,-0.423013
1069,0.074774,0.467351,-0.358072
1070,-0.303653,0.410664,0.782253
1071,-0.251802,0.427814,1.169929
1072,-0.376119,0.408865,1.051678
1073,-1.004657,0.115676,0.288557
1074,-0.939669,-0.027403,0.037538
1075,-0.827261,-0.101859,-0.099874
1076,-0.194148,-0.286269,0.683037
1077,0.239033,-0.196708,0.821333
1078,0.4805,0.136075,0.656246
1079,0.449941,0.067101,0.587275
1080,0.41094,0.014954,0.619612
1081,0.200015,-0.136846,0.873536
1082,0.031849,-0.461192,0.957285
1083,0.026284,-0.616346,1.009173
1084,0.108711,-0.851509,1.024397
1085,0.319958,-0.820261,0.962755
1086,0.332046,-0.738218,0.595376
1087,0.263149,-0.356631,0.072443
1088,-0.459282,0.656333,-1.488913
1089,-1.264185,1.798589,-1.908171
1090,-0.430147,0.384406,-0.575676
1091,0.349316,-0.590644,-0.463662
1092,0.317259,-0.796103,-0.061233
1093,-0.67754,-0.207147,0.385823
1094,-1.521383,1.388311,0.65427
1095,-1.051465,1.155633,0.86436
1096,0.321664,-0.710117,0.905094
1097,0.330734,-0.639185,1.041077
1098,0.294561,-0.532457,0.920435
1099,0.092078,-0.373001,0.795017
1100,-0.220833,0.098692,1.274043
1101,-0.097499,0.57582,1.263522
1102,0.127937,0.54127,0.612714
1103,0.280685,0.312592,0.115796
1104,0.226356,0.093843,-0.865355
1105,0.406306,0.115519,-0.07539
1106,0.242183,0.052776,0.194319
1107,0.226705,-0.022637,0.52236
1108,0.164042,-0.04284,0.580794
1109,0.027491,-0.111176,0.113187
1110,-0.00676,-0.145839,0.049735
1111,-0.333639,-0.327018,-0.581602
1112,0.048718,-0.042916,0.096658
1113,0.099882,0.079326,0.33072
1114,0.091592,0.194263,0.351758
1115,0.377736,0.316368,-0.516143
1116,0.383247,0.333241,-0.556192
1117,0.002174,0.469823,-0.386881
1118,0.101699,0.514796,-0.007775
1119,0.14326,0.589447,0.035354
1120,0.147732,0.56618,-0.213445
1121,0.093737,0.712121,-0.447393
1122,0.124656,0.738538,-0.418944
1123,0.114967,0.694439,-0.524745
1124,0.059236,0.313826,-0.614247
1125,-0.130177,0.164909,-0.342343
1126,-0.301635,0.541078,0.892682
1127,-0.383279,0.555609,1.071093
1128,-0.85527,0.410362,0.732094
1129,-1.173749,0.086824,0.367958
1130,-0.942228,-0.249016,-0.192548
1131,-0.510779,-0.195598,0.289774
1132,0.165172,-0.34121,0.727844
1133,0.500192,0.082351,0.681328
1134,0.414538,0.056976,0.618662
1135,0.406766,-0.071289,0.700349
1136,0.299503,-0.109243,0.749096
1137,0.06465,-0.363917,0.886954
1138,0.026982,-0.575473,0.940878
1139,-0.001509,-0.717,0.900536
1140,0.123761,-0.793271,0.907988
1141,0.28174,-0.73856,0.748617
1142,0.333761,-0.540318,0.379419
1143,0.165607,-0.009183,-0.791754
1144,-1.000345,1.370385,-1.758614
1145,-1.464821,2.241769,-1.081776
1146,0.008009,0.255377,-0.381193
1147,0.306036,-0.64675,-0.190318
1148,-0.097655,-0.774082,0.121866
1149,-0.961907,-0.519021,0.836602
1150,-1.236944,0.961479,0.524574
1151,0.164172,0.756974,0.282058
1152,0.306215,-0.441543,1.262829
1153,0.142052,-0.561741,0.91355
1154,0.26192,-0.525363,0.654486
1155,0.254498,-0.53077,0.686325
1156,0.131962,-0.337312,0.778986
1157,-0.016325,0.517499,0.89789
1158,0.140165,0.410774,0.626106
1159,0.257939,0.316693,0.461978
1160,0.329918,-0.013982,-0.940611
1161,0.345167,0.006294,-0.437562
1162,0.238314,0.003987,-0.002158
1163,0.035874,0.052756,0.051615
1164,0.02588,0.017942,0.045038
1165,-0.016476,0.005892,0.037616
1166,-0.007649,-0.125245,-0.171696
1167,-0.021982,-0.151911,-0.141144
1168,0.013557,-0.145428,-0.100669
1169,0.024217,0.189154,0.044574
1170,0.125791,0.203094,-0.059757
1171,0.290971,0.239862,-0.247128
1172,0.293007,0.572556,-0.332538
1173,0.062414,0.419564,-0.496351
1174,-0.067826,0.48939,-0.313109
1175,0.001845,0.594078,-0.163649
1176,0.111386,0.717403,-0.29978
1177,0.146039,0.790035,-0.409232
1178,-0.097554,0.512362,-0.484145
1179,-0.397478,0.113038,-0.516029
1180,-0.527056,0.352008,0.543352
1181,-0.391151,0.415631,1.110197
1182,-0.563719,0.355193,0.974478
1183,-1.059661,0.106201,0.423832
1184,-0.916778,-0.188425,-0.203455
1185,-0.757828,-0.167105,-0.113961
1186,-0.132653,-0.238213,0.531811
1187,0.344937,-0.088479,0.960677
1188,0.549991,0.122329,0.938945
1189,0.470737,0.013923,0.634453
1190,0.338199,-0.048621,0.768053
1191,0.223852,-0.080696,0.863703
1192,-0.001439,-0.402728,0.971926
1193,-0.068841,-0.61394,0.99852
1194,-0.003347,-0.609851,0.957244
1195,0.235849,-0.641536,0.8878
1196,0.353605,-0.590491,0.673203
1197,0.462812,-0.391949,0.174681
1198,0.24319,0.050923,-0.982638
1199,-1.219042,1.281089,-1.589392
1200,-1.995799,1.825163,-1.420874
1201,-0.148945,0.061498,-0.414092
1202,0.093129,-0.541154,-0.165568
1203,-0.477319,-0.402898,0.544803
1204,-1.15294,0.570653,0.344389
1205,-0.25765,0.812344,0.550683
1206,0.117944,0.02946,0.400991
1207,0.351421,-0.593278,1.123809
1208,0.153268,-0.52535,0.842539
1209,0.17446,-0.4904,0.801895
1210,0.087194,-0.306105,0.870963
1211,0.201094,0.407586,0.891934
1212,0.226941,0.394126,0.615395
1213,0.265158,0.392808,0.439208
1214,0.058901,0.087879,-0.897625
1215,0.256695,0.108187,-0.500528
1216,0.282073,0.077872,-0.18517
1217,0.123782,-0.119647,0.426773
1218,0.066149,-0.11072,0.483012
1219,0.024487,-0.125107,0.370629
1220,0.009344,-0.087243,0.015137
1221,0.055391,-0.131999,-0.020054
1222,0.02054,-0.202788,-0.050388
1223,-0.025728,-0.070936,-0.08146
1224,-0.057771,0.223311,0.030894
1225,0.198362,0.289024,-0.32491
1226,0.459923,0.454045,-0.565949
1227,0.269375,0.526809,-0.480628
1228,0.024124,0.331554,-0.095338
1229,0.041307,0.485694,-0.103945
1230,0.064329,0.539066,-0.174947
1231,0.083607,0.67232,-0.530061
1232,0.071229,0.69364,-0.55026
1233,-0.088667,0.574312,-0.493642
1234,-0.199918,0.223783,-0.573715
1235,-0.322403,0.29546,0.200077
1236,-0.186067,0.559721,1.042405
1237,-0.445395,0.353707,0.846015
1238,-0.884957,0.362301,0.53975
1239,-1.112534,0.143049,0.052461
1240,-0.825331,-0.157298,0.054368
1241,-0.183958,-0.305138,0.560677
1242,0.042673,-0.300235,0.775809
1243,0.432338,0.050593,0.858672
1244,0.394861,0.122962,0.696989
1245,0.359013,0.063058,0.696374
1246,0.174433,-0.054908,0.870756
1247,0.052164,-0.375187,0.952274
1248,0.022137,-0.504023,1.031312
1249,0.012389,-0.827706,1.031667
1250,0.24005,-0.807748,1.031006
1251,0.343985,-0.791218,0.794728
1252,0.408393,-0.583492,0.326838
1253,0.109575,0.086494,-0.565076
1254,-1.427936,1.356345,-1.683501
1255,-1.269741,1.96373,-1.268439
1256,-0.011125,0.018262,-0.353469
1257,-0.255703,-0.521469,-0.132431
1258,-0.906219,-0.174385,0.609968
1259,-0.576073,1.110884,-0.567774
1260,0.246627,0.385556,0.527052
1261,0.397566,-0.52691,1.422608
1262,0.476488,-0.722927,0.927957
1263,0.422101,-0.642194,0.765283
1264,0.385271,-0.585993,0.621667
1265,-0.201939,0.547599,1.27188
1266,-0.21599,0.879248,1.405855
1267,0.175126,0.484409,0.212772
1268,0.267787,0.039149,-0.870055
1269,0.293089,0.052727,-0.632235
1270,0.288131,-0.100917,0.106176
1271,0.120685,-0.124334,0.263028
1272,0.121364,-0.120108,0.365283
1273,0.044841,-0.135122,0.215218
1274,0.016517,-0.076363,0.0047
1275,0.007771,-0.038027,-0.036934
1276,0.003581,-0.084556,-0.011923
1277,-0.057014,-0.215158,-0.073228
1278,-0.081834,-0.172529,-0.053531
1279,-0.105737,0.24992,-0.050577
1280,0.354277,0.297408,-0.444237
1281,0.547446,0.419841,-0.678404
1282,0.214581,0.531854,-0.390313
1283,-0.009765,0.392637,-0.279937
1284,-0.094462,0.463685,-0.514663
1285,0.029012,0.70022,-0.64388
1286,0.189616,0.867908,-0.478855
1287,0.072853,0.670836,-0.382273
1288,-0.012086,0.475028,-0.315489
1289,-0.370741,0.613738,1.266741
1290,-0.39865,0.592774,1.35889
1291,-0.878342,0.445411,0.699786
1292,-1.398076,0.100484,0.09016
1293,-1.438155,-0.26494,-0.083708
1294,-0.882867,-0.436848,0.46578
1295,-0.228748,-0.378268,0.592717
1296,0.121943,-0.359726,0.790412
1297,0.723093,0.204348,0.930357
1298,0.61014,0.146833,0.724833
1299,0.438177,0.100148,0.735464
1300,0.280444,-0.192218,0.889976
1301,0.124287,-0.665392,1.079456
1302,0.057313,-0.946582,1.232016
1303,0.148742,-0.940017,1.177909
1304,0.285338,-0.924796,0.865951
1305,0.485043,-0.594019,0.379926
1306,0.206554,0.148824,-1.097657
1307,-1.556606,2.159177,-2.484851
1308,-1.165448,1.378557,-0.612735
1309,-0.101052,-0.705239,-0.28942
1310,0.093667,-1.045181,-0.029696
1311,-0.409351,-0.887485,0.879448
1312,-1.174834,0.815752,0.470599
1313,-0.574942,1.890648,-0.064125
1314,0.421026,-0.35239,1.498409
1315,0.210359,-0.557015,1.075466
1316,0.237943,-0.568662,0.894841
1317,0.288156,-0.469324,0.69376
1318,0.088946,0.000109,0.977232
1319,0.020499,0.553112,1.165669
1320,0.070813,0.684098,0.963094
1321,0.243991,0.289961,0.225185
1322,0.031438,-0.100712,-0.794165
1323,0.051565,-0.074427,-0.575669
1324,0.092996,-0.138733,0.335581
1325,0.102819,-0.290963,0.448824
1326,0.111127,-0.345341,0.308417
1327,-0.07961,-0.152965,0.12388
1328,-0.206359,-0.153951,-0.198724
1329,-0.152437,-0.126957,-0.270007
1330,0.132807,0.050548,-0.05562
1331,0.161853,0.084921,0.246918
1332,0.099761,0.200606,0.111742
1333,0.171783,0.277246,-0.305782
1334,0.380696,0.325429,-0.446303
1335,0.245314,0.431983,-0.46116
1336,0.082577,0.33393,0.009307
1337,0.148269,0.483449,-0.046834
1338,0.165295,0.535792,-0.129599
1339,0.119054,0.586989,-0.446737
1340,0.063358,0.64792,-0.526897
1341,0.020973,0.678245,-0.562548
1342,-0.111811,0.270209,-0.664504
1343,-0.283988,0.169079,-0.065333
1344,-0.119788,0.556868,1.205167
1345,-0.433227,0.411124,0.806443
1346,-1.086123,0.559198,0.592435
1347,-1.417619,0.112659,0.50285
1348,-1.317987,-0.475533,0.199351
1349,-0.009774,-0.220942,0.381002
1350,0.362054,-0.074829,0.594788
1351,0.456774,0.250482,0.659646
1352,0.480571,0.060214,0.755813
1353,0.433897,0.049685,0.873663
1354,0.226045,-0.252587,0.931313
1355,0.134825,-0.445829,0.969629
1356,0.072172,-0.527859,0.981019
1357,0.030018,-0.670852,1.047441
1358,0.244315,-0.669851,0.831167
1359,0.268045,-0.641269,0.658836
1360,0.315997,-0.650546,0.477427
1361,-0.528051,0.581308,-1.697001
1362,-1.093035,1.658964,-1.626372
1363,-1.380051,1.769159,-0.763223
1364,-0.295609,-0.196169,-0.335741
1365,0.219501,-0.879365,-0.009505
1366,-0.515202,-0.694257,0.128293
1367,-1.239608,-0.37075,0.508862
1368,-0.826568,1.051255,-0.171454
1369,0.704954,0.918328,1.203035
1370,0.297133,-0.528747,1.260168
1371,0.14424,-0.396163,1.060447
1372,0.107903,-0.39544,0.809885
1373,0.014795,-0.052504,1.008995
1374,-0.005663,0.236973,1.050464
1375,0.10045,0.459923,0.581715
1376,0.212902,0.254317,0.244706
1377,0.101992,0.042106,-0.584668
1378,0.169591,0.047452,-0.107317
1379,0.120611,-0.12663,0.308314
1380,0.07239,-0.164245,0.444469
1381,0.088312,-0.289504,0.324414
1382,0.056837,-0.085573,0.166151
1383,0.032001,-0.041141,0.030212
1384,-0.020379,-0.021088,-0.292771
1385,0.078562,0.075437,-0.238549
1386,0.167768,0.15738,-0.0784
1387,0.024201,0.241361,-0.155084
1388,0.186595,0.291217,-0.406574
1389,0.23098,0.362304,-0.324119
1390,-0.025077,0.313385,-0.531276
1391,0.079937,0.33015,-0.118151
1392,0.099939,0.390592,-0.128517
1393,-0.022401,0.374971,-0.449111
1394,0.068802,0.513868,-0.638833
1395,0.099466,0.547401,-0.679339
1396,-0.180684,0.513051,-0.779215
1397,-0.271079,0.273672,-0.32505
1398,-0.301168,0.380492,0.368222
1399,-0.310416,0.704835,1.201875
1400,-0.835055,0.676517,0.816732
1401,-1.09663,0.73617,0.667186
1402,-1.10896,-0.071446,-0.021626
1403,-0.743547,-0.064243,0.314546
1404,-0.197106,-0.296301,0.467854
1405,0.281069,-0.156867,0.80789
1406,0.281911,-0.274471,0.687069
1407,0.285698,-0.236551,0.751246
1408,0.309705,-0.170523,0.879232
1409,0.106436,-0.346916,1.024709
1410,0.082839,-0.472056,1.017385
1411,0.029273,-0.769147,1.004149
1412,0.070456,-0.914072,0.970056
1413,0.302533,-0.743265,0.935627
1414,0.24488,-0.831842,0.687669
1415,0.213317,-0.537786,0.001921
1416,-0.485931,0.521149,-1.910738
1417,-0.890454,2.423665,-0.738386
1418,-0.379943,0.114355,-0.418147
1419,-0.125198,-0.466253,-0.250726
1420,-0.760332,-0.682311,0.035021
1421,-1.558636,-0.604239,0.186045
1422,-1.485028,0.072514,-0.494794
1423,0.781132,0.743619,1.019354
1424,0.540443,-0.427717,1.629905
1425,0.400657,-0.420361,1.299441
1426,0.145976,-0.191954,0.745348
1427,0.086005,-0.205112,0.772192
1428,0.019493,-0.064839,0.880073
1429,0.206147,0.506947,0.780259
1430,0.100369,0.400199,0.372473
1431,0.110191,0.215375,0.214717
1432,0.035573,-0.037297,-0.407827
1433,0.135924,0.010932,0.038414
1434,0.09617,-0.097608,0.272861
1435,0.059791,-0.182926,0.305083
1436,0.050404,-0.293236,0.295636
1437,-0.054786,-0.246147,0.229704
1438,-0.151852,-0.169348,0.069806
1439,-0.025566,-0.040417,-0.174565
1440,0.166459,0.044079,-0.091765
1441,0.192915,0.065943,-0.023248
1442,0.004055,0.25249,-0.151446
1443,0.017981,0.266672,-0.162784
1444,0.287701,0.220281,-0.599347
1445,0.092569,0.370412,-0.403188
1446,0.086389,0.355977,-0.176097
1447,0.138315,0.360876,-0.039713
1448,0.08274,0.699415,-0.288116
1449,0.091192,0.779833,-0.304777
1450,0.123121,0.793762,-0.295994
1451,-0.207997,0.570709,-0.619984
1452,-0.349663,0.355699,-0.544309
1453,-0.433231,0.320451,-0.068484
1454,-0.535481,0.395848,0.754974
1455,-0.776605,0.371609,0.660922
1456,-1.044387,0.401882,0.570989
1457,-0.897174,-0.283907,0.000158
1458,-0.734895,-0.133047,0.24529
1459,-0.501563,-0.144488,0.412388
1460,0.455725,0.142831,0.801852
1461,0.43381,0.157463,0.852932
1462,0.29525,-0.117639,0.734341
1463,0.168601,-0.112202,0.859465
1464,0.120371,-0.124093,0.955912
1465,-0.021154,-0.474082,0.985592
1466,-0.038225,-0.685029,1.039002
1467,0.029146,-0.730568,1.081524
1468,0.315286,-0.774747,1.004114
1469,0.302709,-0.755677,0.666918
1470,0.379162,-0.560968,0.452815
1471,-0.487083,0.651453,-1.649724
1472,-1.817464,2.411382,-1.033201
1473,-1.044074,1.775577,-0.910248
1474,-0.037952,-0.341601,-0.215819
1475,-0.004822,-0.762109,0.012679
1476,-0.474056,-0.756751,0.482352
1477,-0.645355,-0.245101,0.426503
1478,-0.589176,1.473736,0.536975
1479,-0.108164,0.494331,0.537425
1480,0.088052,-0.412824,1.090506
1481,0.285976,-0.509213,0.918702
1482,0.307301,-0.396746,0.847301
1483,0.312219,-0.183895,1.015339
1484,0.1696,0.207468,1.021037
1485,0.114804,0.36899,0.923288
1486,0.117953,0.38043,0.418834
1487,0.09135,0.148249,-0.312614
1488,-0.008425,-0.081568,-0.790459
1489,0.087662,-0.028602,0.293995
1490,0.148043,-0.209553,0.436022
1491,0.105082,-0.281681,0.282898
1492,-0.113364,-0.175936,0.092125
1493,-0.203142,-0.243877,-0.002226
1494,-0.041853,-0.118638,-0.187579
1495,0.030773,-0.003707,-0.157281
1496,0.160191,0.053248,0.10761
1497,0.135102,0.129485,0.049614
1498,0.068584,0.267282,-0.06961
1499,0.367974,0.246039,-0.509197
1500,0.267442,0.40561,-0.517669
1501,0.123326,0.397944,-0.429893
1502,0.103495,0.413699,-0.07786
1503,0.104477,0.515341,-0.144494
1504,0.103795,0.640842,-0.226052
1505,0.165565,0.805292,-0.383548
1506,0.166645,0.794159,-0.341905
1507,-0.157732,0.310723,-0.620325
1508,-0.345798,0.104493,-0.185863
1509,-0.359255,0.248713,0.528227
1510,-0.454229,0.417515,0.887575
1511,-0.989914,0.439149,0.603917
1512,-1.262396,0.354454,0.60437
1513,-0.655602,-0.017233,0.041216
1514,-0.44128,-0.029075,0.16393
1515,-0.188217,-0.164332,0.403474
1516,0.458928,0.170478,0.869415
1517,0.266061,-0.01497,0.702202
1518,0.259936,-0.107529,0.749496
1519,0.214454,-0.151929,0.902604
1520,0.122019,-0.301569,0.926498
1521,0.055734,-0.37845,0.966952
1522,-0.062253,-0.75132,0.999643
1523,0.104436,-0.808847,1.025986
1524,0.237963,-0.795244,0.992197
1525,0.278461,-0.728976,0.577349
1526,0.136475,-0.188167,-0.095272
1527,-0.037072,0.198041,-0.822885
1528,-1.841523,2.567847,-1.718501
1529,-0.147657,0.739049,-0.498512
1530,0.207003,0.07051,-0.222514
1531,0.194005,-0.911206,-0.462201
1532,-0.141904,-0.926165,1.646703
1533,-0.131268,-0.943568,1.60275
1534,-0.914241,0.835475,1.226723
1535,-0.923203,2.397408,-2.987531
1536,-0.061758,0.195049,0.04066
1537,0.205387,-0.617844,1.110219
1538,0.272537,-0.455219,1.05515
1539,0.262761,-0.381898,1.011656
1540,0.022284,-0.127217,1.00325
1541,-0.147421,0.172269,0.775378
1542,-0.147391,0.171609,0.769675
1543,-0.057322,0.01885,0.323806
1544,0.143316,-0.20541,-0.069704
1545,0.196632,-0.191321,0.129397
1546,0.094266,-0.17528,0.207831
1547,-0.062327,0.059712,0.224495
1548,-0.06665,0.058304,0.207437
1549,0.125573,-0.038586,-0.098542
1550,0.15648,0.025988,-0.032565
1551,0.169991,0.035381,-0.044743
1552,0.201814,-0.005953,-0.100412
1553,-0.010924,0.10792,-0.138215
1554,0.008529,0.168961,-0.196105
1555,0.283742,0.353804,-0.317075
1556,0.187258,0.512965,-0.349648
1557,0.128641,0.449544,-0.368086
1558,-0.090371,0.327591,-0.317976
1559,-0.142715,0.249327,-0.490328
1560,-0.172122,0.29329,-0.908022
1561,-0.176492,0.650258,-0.723312
1562,-0.108122,0.495675,-0.52894
1563,-0.071469,0.415883,-0.359419
1564,-0.21488,0.81017,0.910506
1565,-0.272769,0.594733,1.019345
1566,-0.613758,0.57656,0.900329
1567,-1.653228,0.437191,0.402682
1568,-1.185456,-0.54035,-0.2216
1569,-1.066041,-0.484112,-0.097234
1570,-0.194836,-0.413448,0.634456
1571,0.370746,-0.247232,0.975738
1572,0.455496,-0.048243,0.853791
1573,0.184631,-0.001823,0.688288
1574,0.099368,-0.066697,0.744025
1575,0.088748,-0.038308,0.79073
1576,-0.102729,-0.715785,1.038083
1577,-0.092276,-0.72198,1.037157
1578,-0.054125,-0.779303,1.002666
1579,0.33916,-0.760127,1.039245
1580,0.389624,-0.583976,0.758087
1581,0.411392,-0.463554,0.522287
1582,0.077999,0.182868,-1.155767
1583,-1.166897,1.217723,-1.708331
1584,-1.453405,1.63298,-1.021571
1585,-0.44035,0.167762,-0.172161
1586,-1.95202,0.431621,-0.110544
1587,-1.931538,0.432699,-0.131912
1588,-0.869398,0.851897,-0.755939
1589,0.965498,-1.477185,2.038923
1590,0.930113,-1.438387,1.767804
1591,0.83654,-0.786715,1.049273
1592,0.573358,-0.550993,0.931145
1593,0.269501,-0.297173,0.7199
1594,-0.668153,1.189066,1.907176
1595,-0.453553,1.362898,1.373919
1596,-0.130901,1.155161,0.55451
1597,0.078572,-0.150487,-1.50378
1598,0.280839,0.038691,-0.066165
1599,0.382505,0.029471,0.108218
1600,0.258474,-0.296812,0.12706
1601,-0.069497,-0.101413,0.214647
1602,-0.090752,-0.028591,0.532395
1603,0.011695,-0.140799,0.05414
1604,-0.008083,-0.143675,-0.185761
1605,-0.047489,-0.147322,-0.205978
1606,-0.048327,-0.049347,-0.09538
1607,-0.035506,-0.101241,0.178191
1608,-0.031063,-0.06399,0.162597
1609,0.127537,0.160626,-0.290095
1610,0.282713,0.236498,-0.246049
1611,0.02068,0.139803,-0.335183
1612,-0.156514,0.264045,-0.180147
1613,-0.035358,0.431569,0.049218
1614,0.066106,0.409297,-0.130767
1615,0.07851,0.359794,-0.404656
1616,0.038331,0.631213,-0.462999
1617,-0.014452,0.756051,-0.400495
1618,0.000375,0.684045,-0.557829
1619,-0.046383,0.231023,-0.563744
1620,-0.236404,0.151329,0.046594
1621,-0.315643,0.438528,1.229854
1622,-0.514542,0.285593,0.862375
1623,-0.796781,0.280439,0.73405
1624,-1.107849,-0.088947,-0.086606
1625,-0.955616,-0.196763,0.084666
1626,-0.700378,-0.243588,0.304594
1627,0.046335,-0.279384,0.94329
1628,0.398983,0.167562,0.607053
1629,0.370185,0.178077,0.653485
1630,0.193307,-0.089058,0.772942
1631,0.042654,-0.310538,0.910799
1632,0.031502,-0.285613,0.950947
1633,-0.056623,-0.816441,1.036441
1634,0.030422,-0.870334,1.104872
1635,0.046262,-0.863215,1.103245
1636,0.252518,-0.805224,0.760388
1637,0.23423,-0.535504,0.305816
1638,0.261427,-0.560223,0.251891
1639,-1.849537,1.782923,-1.848277
1640,-1.96034,2.672632,-1.70434
1641,-1.068195,1.743365,-1.095024
1642,0.340936,-0.548154,-0.208052
1643,-0.431305,-0.586847,0.417735
1644,-0.815114,-0.413436,0.714473
1645,-0.759955,2.072115,0.091587
1646,-0.083967,0.195806,0.818042
1647,-0.083865,-0.57487,1.294899
1648,0.207596,-0.952047,0.956732
1649,0.266625,-0.797753,0.730151
1650,0.240354,-0.789065,0.696151
1651,-0.37498,-0.10745,1.060049
1652,-0.555947,0.502766,1.358909
1653,-0.467869,0.625506,1.19199
1654,0.187876,0.194165,0.222783
1655,0.597786,0.08263,-0.89273
1656,0.6175,0.042639,-0.241988
1657,0.128426,0.001116,0.461604
1658,0.100335,0.042169,0.063823
1659,-0.047563,-0.065767,0.053202
1660,-0.254493,-0.269134,-0.334666
1661,-0.455887,-0.571955,-0.663261
1662,-0.138731,-0.11438,0.150616
1663,0.09375,-0.033712,0.37495
1664,0.100574,0.160712,0.032538
1665,0.154838,0.254977,-0.188065
1666,0.421369,0.390861,-0.544623
1667,0.046003,0.463771,-0.408643
1668,-0.060403,0.453144,-0.280069
1669,-0.117598,0.512278,-0.237814
1670,-0.070132,0.705174,-0.39492
1671,0.025051,0.798681,-0.43591
1672,-0.002381,0.813219,-0.406982
1673,-0.24186,0.402387,-0.513237
1674,-0.398083,0.184121,-0.589316
1675,-0.640378,0.236946,0.911384
1676,-0.568186,0.312154,0.996552
1677,-1.010392,0.230372,0.634275
1678,-1.316253,0.030254,0.12298
1679,-0.887947,-0.32035,0.061039
1680,-0.911213,-0.311694,0.13033
1681,-0.079474,-0.288012,0.969074
1682,0.212604,-0.010462,0.670333
1683,0.185056,0.003975,0.721906
1684,0.245807,-0.129888,0.779323
1685,0.141641,-0.185581,0.89338
1686,0.064004,-0.242684,0.923506
1687,-0.051567,-0.631253,0.985129
1688,-0.002601,-0.720884,1.071789
1689,0.050072,-0.767682,1.034239
1690,0.364224,-0.597892,0.515933
1691,0.476343,-0.191422,-0.662218
1692,0.432838,0.167572,-1.306432
1693,-1.567361,0.743524,-0.903112
1694,-0.634047,0.260797,-0.395582
1695,-0.127303,-0.420619,-0.296156
1696,-0.159933,-0.484717,0.143535
1697,-0.844368,-0.251361,1.11813
1698,-1.397322,0.116205,0.833352
1699,-0.427295,1.079936,-0.589196
1700,0.200288,-0.437532,1.602387
1701,0.146056,-0.559318,1.441975
1702,0.16259,-0.528723,0.912139
1703,0.124307,-0.52528,0.737327
1704,0.087182,-0.464216,0.787895
1705,-0.224273,0.37094,1.25163
1706,-0.146186,0.615891,0.94136
1707,-0.020416,0.582735,0.674767
1708,0.08121,0.035307,-0.69634
1709,0.122701,0.04046,-0.387842
1710,0.138617,0.065146,-0.093738
1711,0.130604,-0.174391,0.500936
1712,0.133626,-0.318507,0.378803
1713,0.015128,-0.22185,0.160065
1714,-0.20889,-0.151864,-0.095769
1715,-0.194157,-0.224357,-0.342169
1716,-0.112832,-0.170051,-0.37922
1717,0.056152,0.050589,-0.120356
1718,0.034377,0.239321,-0.040722
1719,0.247313,0.32833,-0.56788
1720,0.334244,0.520212,-0.481966
1721,-0.036758,0.471864,-0.47628
1722,-0.04567,0.454229,-0.2126
1723,-0.121267,0.460953,-0.403136
1724,-0.186882,0.415874,-0.698484
1725,-0.030385,0.597717,-0.520555
1726,-0.076595,0.739798,-0.516139
1727,-0.066503,0.499605,-0.451854
1728,-0.37471,0.336511,0.12221
1729,-0.344547,0.465525,1.133806
1730,-1.157729,0.517405,0.690975
1731,-1.173666,0.524856,0.768388
1732,-1.428042,-0.236013,0.518166
1733,-0.721351,-0.291613,-0.02509
1734,-0.377703,-0.402083,0.21972
1735,0.084925,-0.266317,0.929516
1736,0.522564,-0.020143,0.707944
1737,0.409424,-0.127438,0.685039
1738,0.259528,-0.265814,0.758837
1739,0.111363,-0.363189,0.830441
1740,0.036544,-0.474424,0.884231
1741,0.007586,-0.694985,1.034884
1742,0.080998,-0.846873,1.065766
1743,0.195064,-0.833956,0.96835
1744,0.422976,-0.438032,0.154051
1745,0.472005,-0.179107,-0.210002
1746,-1.559109,1.746874,-1.5769
1747,-0.881664,1.483322,-0.965468
1748,-0.045485,-0.15902,-0.066491
1749,0.100506,-0.713062,-0.109525
1750,-0.940016,-0.356257,0.945343
1751,-1.556534,-0.098002,1.179279
1752,-1.754705,0.683945,0.355587
1753,0.183413,0.33421,0.477587
1754,0.088472,-0.650329,1.497173
1755,-0.02045,-0.632516,1.179684
1756,0.123182,-0.577763,0.830634
1757,-0.023098,-0.43797,0.898034
1758,-0.152148,-0.202668,1.046865
1759,-0.14318,0.440776,1.089776
1760,0.06907,0.501781,0.685664
1761,0.209774,0.285237,0.282601
1762,0.149145,-0.076482,-0.871911
1763,0.196379,0.005182,0.059109
1764,0.116501,-0.108356,0.38102
1765,0.071654,-0.195487,0.226489
1766,-0.060627,-0.133754,0.148794
1767,-0.069981,-0.13742,0.106449
1768,-0.305721,-0.278644,-0.561658
1769,-0.092777,-0.045129,0.00773
1770,-0.081767,-0.036106,-0.003788
1771,0.071093,0.052749,0.234261
1772,0.170522,0.152304,-0.18837
1773,0.180231,0.165028,-0.214085
1774,-0.008761,0.315867,-0.336383
1775,-0.127305,0.319478,-0.184392
1776,-0.088649,0.437237,-0.060139
1777,0.01943,0.449697,-0.30984
1778,0.129756,0.416811,-0.534334
1779,0.149325,0.515475,-0.490876
1780,-0.076371,0.871369,-0.314131
1781,-0.048141,0.484948,-0.451669
1782,-0.135894,0.230915,-0.496374
1783,-0.385555,0.105429,0.08445
1784,-0.417524,0.287363,0.939399
1785,-0.679194,0.293244,0.765193
1786,-1.350882,0.032414,0.457563
1787,-1.337227,-0.377121,-0.001549
1788,-1.057518,-0.359117,0.108622
1789,-0.177326,-0.297393,0.628493
1790,0.313033,-0.057711,0.959584
1791,0.389662,0.113917,0.879801
1792,0.311409,-0.038774,0.66248
1793,0.284372,-0.062439,0.728196
1794,0.130487,-0.169415,0.844052
1795,0.051956,-0.701328,0.988607
1796,0.047873,-0.733029,0.980222
1797,0.064812,-0.722375,0.979353
1798,0.114983,-0.748515,0.869812
1799,0.261244,-0.58916,0.462193
1800,0.35642,-0.439517,0.12614
1801,-0.28408,0.870298,-1.460182
1802,-1.847451,1.867575,-1.130998
1803,-1.191487,0.992823,-0.694498
1804,-0.013347,-0.442381,-0.357735
1805,-0.151189,-0.753194,-0.147834
1806,0.035477,-0.689849,0.286541
1807,-0.416704,-0.60362,1.708164
1808,-0.555312,1.513385,0.351306
1809,-1.369694,3.100435,-2.257052
1810,-0.178758,-0.680177,1.531859
1811,0.004825,-0.824419,0.768413
1812,0.007161,-0.840511,0.723743
1813,-0.071288,-0.395229,0.753518
1814,-0.314942,0.072546,0.990924
1815,-0.313828,0.06437,0.926028
1816,0.033253,0.491753,0.776067
1817,0.225241,0.239755,0.279745
1818,0.245489,0.254154,0.302879
1819,0.333579,-0.012661,0.317349
1820,0.19184,-0.116222,0.392772
1821,0.131144,-0.180902,0.323988
1822,-0.056581,-0.127558,0.107789
1823,-0.192724,-0.079293,-0.045694
1824,-0.297578,-0.243079,-0.327015
1825,-0.249117,-0.373295,-0.543227
1826,0.074489,-0.036228,0.200682
1827,0.144535,-0.09687,0.229994
1828,0.02004,0.036384,0.041466
1829,0.227053,0.197253,-0.406714
1830,0.309749,0.264325,-0.487447
1831,0.016431,0.451162,-0.534148
1832,0.03118,0.463636,-0.06899
1833,0.005073,0.543993,-0.127874
1834,-0.066501,0.555274,-0.656144
1835,0.00761,0.764426,-0.574273
1836,-0.057605,0.828507,-0.597304
1837,-0.316028,0.393826,-0.661578
1838,-0.452375,0.236788,-0.370157
1839,-0.305094,0.415345,1.303492
1840,-0.771855,0.365478,0.77811
1841,-1.58789,0.624998,0.385581
1842,-1.736196,0.331344,0.290733
1843,-1.14446,-0.336474,0.180525
1844,-0.447103,-0.541274,0.515244
1845,-0.103854,-0.542479,0.769398
1846,0.547667,0.047347,0.930522
1847,0.428999,0.011235,0.655432
1848,0.326529,-0.168544,0.727328
1849,0.233748,-0.372796,0.868347
1850,0.091949,-0.678043,0.991684
1851,0.034757,-0.889952,1.019386
1852,0.055452,-0.904295,1.067796
1853,0.156312,-0.887214,0.999213
1854,0.282526,-0.742516,0.602342
1855,0.353791,-0.22982,-0.13014
1856,-0.377313,0.773154,-1.538224
1857,-1.429619,1.835807,-1.688072
1858,-0.288587,0.738254,-0.124551
1859,-0.10842,-0.42115,-0.043558
1860,-0.341138,-0.6472,0.072883
1861,-1.846007,-0.090969,0.40133
1862,-1.052785,1.225143,-0.648638
1863,0.027347,0.635395,0.696661
1864,0.527619,-0.906242,1.742288
1865,0.263016,-0.415764,1.087686
1866,0.251163,-0.44914,1.034218
1867,-0.251735,-0.272636,0.68702
1868,-0.460715,0.360516,1.542703
1869,-0.452079,0.354592,1.468423
1870,0.245047,0.485495,0.296297
1871,0.422164,0.188585,-0.945629
1872,0.339746,0.097624,-0.581122
1873,0.251274,-0.017317,0.065988
1874,0.106686,-0.151541,0.193465
1875,0.094085,-0.160509,0.172025
1876,-0.02252,-0.228593,0.241348
1877,-0.223469,-0.211326,0.059985
1878,-0.319548,-0.284846,-0.138814
1879,-0.410474,-0.390784,-0.423141
1880,-0.080571,-0.091724,0.144552
1881,-0.02471,-0.075407,0.214356
1882,0.034114,0.004229,0.234833
1883,0.04059,0.220822,0.077422
1884,0.078885,0.293322,-0.121932
1885,0.201239,0.319062,-0.42263
1886,0.028479,0.234242,-0.549376
1887,-0.021155,0.211886,-0.483875
1888,0.04938,0.496814,-0.193845
1889,0.124343,0.636724,-0.151019
1890,0.14276,0.789247,-0.121054
1891,0.129057,0.778534,-0.30719
1892,-0.015814,0.754248,-0.397673
1893,-0.162645,0.285728,-0.61255
1894,-0.58423,0.27621,1.093134
1895,-0.485483,0.256414,1.241751
1896,-0.738834,0.166737,0.62571
1897,-1.053345,0.121395,0.240448
1898,-1.026802,-0.039872,-0.034478
1899,-0.8087,-0.244096,0.19859
1900,-0.441757,-0.342542,0.586428
1901,0.099598,-0.31819,1.060209
1902,0.340807,-0.00598,0.779456
1903,0.286102,-0.018296,0.567648
1904,0.305265,-0.03916,0.685751
1905,0.163905,-0.112522,0.856171
1906,0.022771,-0.306463,1.016347
1907,-0.040619,-0.605546,1.096721
1908,-0.067421,-0.790659,1.098201
1909,0.038632,-0.878881,1.087186
1910,0.177955,-0.843453,0.746455
1911,0.267648,-0.535925,0.179033
1912,-0.10321,0.210449,-1.366295
1913,-1.910048,2.051854,-1.835359
1914,-0.878975,1.04404,-0.660927
1915,-0.085413,-0.271935,-0.293129
1916,0.078327,-0.912461,0.369469
1917,0.07896,-0.917461,0.360933
1918,-1.113839,-0.089353,1.253416
1919,-0.655743,1.56824,-0.936084
1920,0.163682,0.431267,0.161116
1921,0.210251,-0.775394,1.335458
1922,0.186297,-0.694938,1.100888
1923,0.182274,-0.637229,0.828585
1924,-0.091027,-0.457072,0.956765
1925,-0.314821,0.283365,1.286681
1926,-0.228218,0.328892,0.979874
1927,0.107951,0.150941,0.316659
1928,0.242452,0.116937,-0.388471
1929,0.425366,0.012801,-0.732863
1930,0.102368,-0.04753,0.292018
1931,-0.047734,-0.042861,0.363185
1932,-0.089305,-0.079732,0.272998
1933,-0.162371,-0.212709,-0.209004
1934,-0.214605,-0.245959,-0.371576
1935,-0.26326,-0.278723,-0.34119
1936,0.004146,0.049848,-0.043676
1937,0.030098,0.228207,-0.079086
1938,0.109514,0.257942,-0.211194
1939,0.342775,0.372507,-0.240016
1940,0.055874,0.468068,-0.34571
1941,-0.035628,0.327337,-0.483854
1942,-0.032667,0.454521,-0.087485
1943,0.001977,0.326701,-0.315679
1944,-0.021082,0.308416,-0.488599
1945,-0.059794,0.650157,-0.630013
1946,-0.092409,0.725913,-0.609201
1947,-0.073316,0.4728,-0.491074
1948,-0.289227,0.494859,0.155934
1949,-0.175415,0.503775,1.332237
1950,-0.780472,0.438918,0.838466
1951,-1.425555,0.571361,0.436021
1952,-1.326735,-0.194655,0.161148
1953,-1.135743,-0.455802,0.152966
1954,-0.581245,-0.599552,0.311365
1955,-0.057362,-0.459531,0.961805
1956,0.41581,-0.073094,0.95968
1957,0.596718,0.214271,0.765495
1958,0.349393,0.098011,0.730941
1959,0.118169,-0.127466,0.887682
1960,-0.085953,-0.460243,1.079059
1961,-0.1362,-0.655271,1.199697
1962,-0.067678,-0.859167,1.227627
1963,0.181948,-0.840597,1.178617
1964,0.265778,-0.708637,0.708884
1965,0.28798,-0.459078,0.274951
1966,-0.282656,0.216396,-1.596699
1967,-1.752965,1.753262,-1.492954
1968,-0.886214,1.456045,-0.793018
1969,-0.169732,-0.353557,-0.053941
1970,-0.039441,-1.072759,0.213046
1971,-0.803707,-0.946421,0.423378
1972,-1.759523,-0.349162,0.75342
1973,-0.33766,1.597986,-0.107348
1974,0.233584,1.038299,0.189383
1975,0.480934,-0.456498,1.516752
1976,0.292912,-0.446228,1.117997
1977,0.245872,-0.405716,0.962544
1978,0.024072,-0.061263,1.047249
1979,-0.060062,0.117565,1.042401
1980,-0.111336,0.339084,0.73366
1981,-0.033156,0.16263,0.257944
1982,-0.027775,0.119015,0.110761
1983,-0.036729,-0.002721,-0.381898
1984,-0.066086,-0.287964,0.21003
1985,-0.012476,-0.238281,0.441746
1986,-0.040793,-0.26529,0.370261
1987,-0.141036,-0.173239,0.174918
1988,-0.2381,-0.187215,-0.113105
1989,-0.274058,-0.251676,-0.551686
1990,-0.000678,0.064008,-0.109452
1991,0.041085,0.039021,0.125615
1992,0.067881,0.028828,-0.009697
1993,0.065068,0.281843,-0.345223
1994,0.310197,0.314191,-0.520347
1995,0.282203,0.529168,-0.519236
1996,-0.008742,0.33133,-0.302177
1997,-0.139384,0.362117,-0.399192
1998,-0.217487,0.346273,-0.536612
1999,-0.090849,0.605787,-0.489819
2000,0.097989,0.76754,-0.327278
2001,0.08752,0.793153,-0.275375
2002,-0.12199,0.489799,-0.18557
2003,-0.363868,0.440519,0.814931
2004,-0.473049,0.32339,1.039034
2005,-1.008971,0.345314,0.669829
2006,-1.248938,0.177567,0.350797
2007,-0.870103,-0.117554,0.156063
2008,-0.516895,0.020036,0.269763
2009,-0.281158,-0.274187,0.48302
2010,0.032415,-0.349165,0.813834
2011,0.315602,-0.052835,0.962277
2012,0.250998,-0.117903,0.745082
2013,0.0978,-0.122858,0.82979
2014,-0.093181,-0.374212,0.933499
2015,-0.170698,-0.610978,1.003415
2016,-0.169297,-0.689948,1.020662
2017,0.008854,-0.826468,0.978128
2018,0.114831,-0.759703,0.92417
2019,0.076788,-0.737903,0.776816
2020,-0.047974,-0.405288,0.125057
2021,-0.514645,1.21843,-1.323742
2022,-0.494662,1.207479,-1.355558
2023,-0.248765,0.281691,-0.433657
2024,-0.024764,-0.281079,-0.167581
2025,0.105251,-0.438691,-0.112642
2026,-0.31172,-0.525137,0.186851
2027,-1.293764,-0.132628,0.98375
2028,-1.584885,0.392462,0.364873
2029,-0.042193,0.700983,0.353978
2030,0.347394,-0.630289,1.215546
2031,0.211568,-0.634712,1.093974
2032,0.056608,-0.49433,0.802642
2033,0.119693,-0.453195,0.758162
2034,0.041613,-0.342248,0.824273
2035,-0.182788,0.371392,1.122794
2036,-0.177192,0.417973,0.847595
2037,-0.054824,0.273863,0.492625
2038,-0.034087,-0.099058,-0.655272
2039,0.011516,-0.057881,-0.26396
2040,0.079168,-0.066466,0.368867
2041,0.068239,-0.157414,0.347809
2042,-0.007771,-0.157715,0.196225
2043,-0.132115,-0.182521,0.035103
2044,-0.315674,-0.366828,-0.375869
2045,-0.185564,-0.308414,-0.35366
2046,-0.004557,0.024247,0.284535
2047,0.119536,0.124938,0.242595
2048,0.110311,0.247978,-0.037811
2049,0.174384,0.326093,-0.356718
2050,0.374069,0.338517,-0.547882
2051,0.085555,0.512009,-0.574606
2052,-0.138802,0.346179,-0.336099
2053,-0.043853,0.448702,-0.144461
2054,-0.060353,0.453882,-0.344844
2055,-0.04844,0.45867,-0.558996
2056,0.064707,0.670571,-0.470237
2057,0.051078,0.610003,-0.396186
2058,0.09162,0.456011,-0.270637
2059,-0.23971,0.297074,-0.172119
2060,-0.465955,0.457018,1.286133
2061,-0.65929,0.348679,1.10258
2062,-1.220186,0.385348,0.644273
2063,-1.315503,-0.082589,-0.024366
2064,-1.304818,-0.149797,0.056617
2065,-0.86241,-0.386677,0.270798
2066,0.028142,-0.400237,0.98583
2067,0.187986,-0.17155,0.945085
2068,0.403322,0.143911,0.820358
2069,0.252298,-0.017062,0.74718
2070,0.191654,-0.090834,0.829253
2071,0.04115,-0.322147,0.966793
2072,-0.11699,-0.833234,1.138198
2073,-0.110726,-0.862571,1.173224
2074,0.022265,-0.860373,1.170331
2075,0.178019,-0.932938,0.885463
2076,0.208889,-0.835338,0.692499
2077,-0.030407,0.158493,-1.133623
2078,-0.266358,0.824727,-2.004677
2079,-1.818443,1.927153,-1.004381
2080,-0.185941,-0.091079,-0.259156
2081,0.144286,-0.492605,-0.265104
2082,-0.084384,-0.632293,0.233106
2083,-1.17608,-0.271209,1.202623
2084,-1.571539,1.18661,0.288529
2085,-0.949466,2.283586,-0.595872
2086,0.235839,-0.683289,1.484126
2087,0.020515,-0.748773,1.035762
2088,0.072005,-0.748446,0.896155
2089,0.102349,-0.654088,0.68939
2090,-0.19146,-0.32611,0.885945
2091,-0.355762,0.006247,1.131575
2092,-0.252559,0.606287,1.104958
2093,0.123075,0.371591,0.474709
2094,0.216941,0.138102,-0.098064
2095,0.370566,0.011236,-0.442379
2096,0.106508,-0.141475,0.654922
2097,0.067776,-0.159689,0.388855
2098,-0.023394,-0.122134,0.000669
2099,-0.288254,-0.186623,-0.433592
2100,-0.443321,-0.378404,-0.755841
2101,-0.123982,0.010769,0.12797
2102,0.013607,0.070418,0.335038
2103,-0.021085,0.107735,0.124956
2104,0.26009,0.334916,-0.619192
2105,0.338508,0.509164,-0.47466
2106,0.062075,0.453694,-0.532586
2107,-0.306367,0.311619,-0.480386
2108,0.011145,0.460843,-0.337479
2109,0.075058,0.445703,-0.436646
2110,0.050878,0.243606,-0.79993
2111,-0.070188,0.080716,-1.140123
2112,-0.004557,0.038583,-0.573858
2113,0.000497,0.322346,-0.064991
2114,-0.009698,1.261684,1.457828
2115,-0.141602,1.037649,1.53895
2116,-0.973846,0.988955,0.940176
2117,-1.579911,0.583394,-0.006222
2118,-1.391043,-0.158683,-0.195693
2119,-1.039304,-0.579614,0.248502
2120,-0.269083,-0.474595,0.966496
2121,0.09609,-0.321508,1.11943
2122,0.349355,0.219807,0.849776
2123,0.323126,0.24424,0.792568
2124,0.122884,0.110175,0.74709
2125,-0.163092,-1.015494,1.309485
2126,-0.149536,-1.114089,1.363485
2127,0.001108,-1.069905,1.389552
2128,0.335187,-1.280984,1.371737
2129,0.442669,-0.995714,0.90948
2130,0.413621,-0.473538,0.455054
2131,0.044824,0.516052,-1.48094
2132,-1.921194,2.182695,-1.858705
2133,-1.994156,2.600134,-1.33901
2134,0.037263,-0.136857,-0.02976
2135,0.08462,-1.114765,-0.214372
2136,0.086811,-0.982243,-0.273349
2137,-1.740131,-0.500361,1.45015
2138,-2.111852,1.841627,-1.075541
2139,-0.594705,2.613867,-1.22205
2140,0.500751,-0.762527,1.920358
2141,0.177588,-0.705211,1.373653
2142,0.121021,-0.647997,1.065272
2143,0.081862,-0.617077,0.712852
2144,-0.265685,-0.247495,0.889522
2145,-0.438802,0.141519,1.172089
2146,-0.259379,0.669506,0.987912
2147,0.183214,0.156816,0.140641
2148,0.238067,0.029749,-0.800897
2149,0.328128,-0.098815,-0.276541
2150,0.085979,-0.025063,0.758582
2151,0.00869,-0.1094,0.470209
2152,-0.022274,-0.132338,0.096072
2153,-0.159272,-0.233442,-0.266242
2154,-0.30636,-0.394679,-0.715096
2155,-0.246984,-0.457316,-0.414606
2156,-0.050761,-0.026241,0.321964
2157,-0.097195,0.053892,0.085374
2158,0.03953,0.134174,-0.387913
2159,0.229071,0.538236,-0.38674
2160,0.106344,0.586033,-0.442832
2161,-0.016389,0.44569,-0.348712
2162,-0.042708,0.582105,-0.362836
2163,0.029907,0.505584,-0.66472
2164,0.11863,0.619561,-0.586063
2165,-0.014718,0.638688,-0.572929
2166,-0.06031,0.544694,-0.422075
2167,-0.492368,0.420294,0.071824
2168,-0.548736,0.570499,1.325682
2169,-0.73706,0.494355,1.062147
2170,-1.43803,0.378335,0.468106
2171,-1.487193,-0.059616,0.10426
2172,-1.48333,-0.364238,-0.013561
2173,-0.482752,-0.522545,0.255206
2174,0.017715,-0.35145,0.863981
2175,0.187461,-0.213521,1.034583
2176,0.5163,0.204586,0.87173
2177,0.304651,0.042104,0.612155
2178,0.231143,0.020802,0.693525
2179,0.042628,-0.546559,1.073381
2180,-0.063903,-0.784748,1.344401
2181,-0.018299,-1.007496,1.327787
2182,0.112536,-1.002693,1.131312
2183,0.207033,-0.894145,0.81161
2184,0.363587,-0.380986,0.253528
2185,-0.476546,0.610637,-1.77625
2186,-1.499816,1.773833,-2.91834
2187,-1.06162,0.538608,-0.205515
2188,-0.06338,-0.684179,-0.23847
2189,0.170536,-1.213495,0.235163
2190,-0.400865,-1.150744,0.554712
2191,-2.202751,0.543857,0.364605
2192,-0.660969,1.856197,-0.646402
2193,1.040591,-0.150499,1.589039
2194,0.46594,-0.627465,1.480824
2195,0.162891,-0.450285,0.85581
2196,0.141195,-0.42079,0.742486
2197,-0.132061,0.197816,1.128628
2198,-0.042675,0.3709,0.912228
2199,0.025575,0.364118,0.699822
2200,0.143734,0.271637,0.364067
2201,0.021092,-0.050607,-0.639368
2202,0.046074,-0.188066,-0.531415
2203,0.103319,-0.217324,0.328478
2204,-0.039116,-0.264025,0.201413
2205,-0.100341,-0.240116,0.187326
2206,-0.274807,-0.189226,-0.010758
2207,-0.478064,-0.340451,-0.62189
2208,-0.129943,-0.041068,-0.008763
2209,0.074714,-0.026115,0.241253
2210,0.111851,-0.005323,0.187132
2211,0.011465,0.182459,-0.11245
2212,0.226237,0.219383,-0.414551
2213,0.22118,0.378529,-0.270983
2214,-0.051846,0.349469,-0.415765
2215,-0.068278,0.488372,-0.165849
2216,-0.074384,0.47217,-0.191423
2217,-0.060891,0.40262,-0.320702
2218,-0.036065,0.561708,-0.495762
2219,-0.197039,0.792761,-0.558072
2220,-0.132357,0.500828,-0.514882
2221,-0.256884,0.192721,-0.196796
2222,-0.256295,0.470086,1.168411
2223,-0.521782,0.357734,0.84665
2224,-1.02821,0.404336,0.587724
2225,-1.277007,0.164726,0.554423
2226,-1.118673,-0.315799,0.467231
2227,-0.679764,-0.24806,0.319716
2228,-0.090664,-0.310652,0.50971
2229,0.288125,-0.212011,0.66291
2230,0.429864,0.134991,0.876417
2231,0.370586,0.012602,0.819625
2232,0.209231,-0.122653,0.864996
2233,0.030081,-0.394952,1.027008
2234,-0.103194,-0.656547,1.135594
2235,-0.11571,-0.775228,1.155577
2236,-0.016087,-0.879233,1.118307
2237,0.144933,-0.836093,0.812182
2238,0.159671,-0.79366,0.638389
2239,-0.037788,-0.202662,-0.469442
2240,-1.28496,1.413653,-2.247047
2241,-1.976581,2.492213,-1.572488
2242,-0.33876,0.249062,-0.331111
2243,0.233562,-0.985849,0.141588
2244,-0.02306,-0.92799,0.257052
2245,-0.89778,-0.560517,0.611602
2246,-1.066241,1.903913,0.050627
2247,-0.07463,1.423058,0.450156
2248,0.368803,-0.555953,1.454437
2249,0.211947,-0.626974,0.88706
2250,0.190199,-0.595883,0.757345
2251,0.141121,-0.530123,0.636693
2252,-0.30171,0.128034,1.268471
2253,-0.296152,0.318834,1.373602
2254,-0.137762,0.456349,0.962966
2255,0.182684,0.141292,0.347291
2256,0.189249,0.152508,0.212819
2257,0.156395,-0.088751,-0.535528
2258,0.063911,-0.175874,0.503886
2259,-0.01447,-0.16807,0.490703
2260,-0.156291,-0.135493,0.041868
2261,-0.308933,-0.237788,-0.162286
2262,-0.456579,-0.359347,-0.401423
2263,-0.120388,-0.088379,-0.006367
2264,-0.01005,-0.009287,0.242295
2265,0.066493,0.064798,0.1363
2266,-0.023033,0.231043,-0.084791
2267,0.047604,0.269739,-0.258185
2268,0.365896,0.356275,-0.432719
2269,0.149849,0.491995,-0.469151
2270,0.09114,0.31218,-0.537821
2271,-0.017259,0.421176,-0.31994
2272,-0.200224,0.50553,-0.619925
2273,-0.163411,0.648945,-0.586518
2274,-0.011899,0.571155,-0.498833
2275,-0.062956,0.564792,-0.239537
2276,-0.204139,0.599329,0.269986
2277,-0.405094,0.682568,1.133455
2278,-1.187404,0.517354,0.638349
2279,-1.439557,0.436852,0.615361
2280,-1.537936,0.187821,0.588375
2281,-0.99083,-0.376899,0.067408
2282,-0.53062,-0.460332,0.183102
2283,-0.358089,-0.513704,0.469369
2284,0.239072,-0.206938,1.077229
2285,0.373434,0.18876,0.77682
2286,0.233803,0.092752,0.76063
2287,-0.008163,-0.214215,0.884079
2288,-0.137636,-0.524343,1.105408
2289,-0.169219,-0.65823,1.17794
2290,-0.137127,-0.854856,1.223694
2291,0.205943,-0.903422,1.13488
2292,0.224051,-0.907631,1.120475
2293,0.361359,-0.65665,0.500217
2294,-0.573854,0.482662,-1.340381
2295,-1.447987,1.368335,-2.04914
2296,-1.282604,2.359277,-0.906061
2297,-0.071358,-0.483771,-0.047865
2298,-0.050135,-0.85745,0.090499
2299,-0.392262,-0.914999,0.562651
2300,-0.78823,-0.272018,0.454712
2301,-0.996373,0.546132,0.425522
2302,-0.541211,0.53559,0.566889
2303,-0.129904,-0.137471,1.142789
2304,0.19206,-0.474061,1.048243
2305,0.213899,-0.39394,0.894645
2306,0.212979,-0.202342,0.922852
2307,0.202754,-0.038795,1.004884
2308,0.102754,0.45336,0.785896
2309,0.148347,0.407677,0.647996
2310,0.157071,0.286893,0.376134
2311,0.055667,-0.173743,-0.26708
2312,-0.054319,-0.258125,-0.015627
2313,-0.162059,-0.308258,0.381454
2314,-0.210702,-0.258433,0.142825
2315,-0.30982,-0.306513,0.073275
2316,-0.374065,-0.342052,0.076076
2317,-0.056823,-0.146095,-0.212311
2318,0.134166,0.02911,0.022643
2319,0.201357,0.087521,0.242102
2320,0.072067,0.049342,0.198409
2321,-0.08139,0.038028,0.099868
2322,-0.030124,0.002702,-0.060038
2323,0.016069,0.055439,-0.366387
2324,-0.016337,0.268974,-0.462178
2325,0.073505,0.23629,-0.044133
2326,0.105851,0.420135,-0.028558
2327,0.11476,0.425547,-0.023515
2328,0.144884,0.509405,-0.568823
2329,-0.013838,0.708912,-0.452677
2330,-0.134343,0.57396,-0.251666
2331,-0.109094,0.379099,-0.186531
2332,-0.298118,0.342724,0.06144
2333,-0.358955,0.378956,1.033695
2334,-0.583991,0.377893,0.969307
2335,-1.135585,0.279494,0.670067
2336,-1.05187,-0.336329,0.480749
2337,-0.881113,-0.245009,0.155586
2338,-0.498634,-0.303888,0.052598
2339,0.051406,-0.344753,0.976001
2340,0.218872,-0.208228,1.11956
2341,0.43425,0.171994,0.758411
2342,0.262387,0.102599,0.669828
2343,0.127757,0.042409,0.727028
2344,0.028473,-0.10636,0.89395
2345,-0.092541,-0.584438,1.017291
2346,-0.076419,-0.596611,1.050695
2347,-0.012779,-0.672173,1.053154
2348,0.163739,-0.696541,0.992141
2349,0.184581,-0.692451,0.930487
2350,-0.057693,-0.095239,-0.011523
2351,-0.359258,0.323243,-0.909206
2352,-0.961582,0.964448,-1.493316
2353,-1.049093,1.584548,-1.059646
2354,0.078937,-0.058899,-0.381182
2355,0.121518,-0.516854,-0.182554
2356,-0.666005,-0.736214,0.664247
2357,-0.668175,-0.319792,0.800758
2358,-0.696327,0.312995,0.666116
2359,-0.109396,1.398815,-0.117373
2360,-0.23356,-0.43183,1.145004
2361,-0.197116,-0.805044,1.140433
2362,0.100826,-0.804168,0.79197
2363,0.129606,-0.780508,0.734511
2364,-0.151452,-0.409983,0.885969
2365,-0.452102,0.210148,1.366142
2366,-0.281192,0.503536,1.08784
2367,0.167286,0.265422,0.521364
2368,0.36176,0.128918,0.114551
2369,0.579893,0.075447,-0.314445
2370,0.249179,-0.072716,0.321368
2371,0.062659,-0.017196,0.491431
2372,-0.033516,-0.033204,0.264064
2373,-0.102269,-0.097405,-0.069039
2374,-0.258342,-0.292175,-0.379132
2375,-0.341636,-0.371481,-0.385762
2376,-0.062066,-0.08035,0.031169
2377,0.036807,0.104585,0.120637
2378,0.19456,0.222682,-0.315239
2379,0.255906,0.287071,-0.314503
2380,0.16593,0.541153,-0.263976
2381,-0.014451,0.324276,-0.046073
2382,-0.024781,0.326897,-0.044328
2383,-0.112472,0.32085,-0.274162
2384,-0.071733,0.500902,-0.545263
2385,-0.033187,0.564373,-0.500379
2386,-0.035904,0.585041,-0.58545
2387,-0.215216,0.275793,-0.413034
2388,-0.323589,0.271322,-0.055435
2389,-0.292225,0.549728,1.244311
2390,-0.752509,0.385706,0.859146
2391,-1.075941,0.515822,0.723237
2392,-1.388511,0.280935,0.417807
2393,-1.098535,-0.345857,0.135428
2394,-0.761215,-0.388047,0.304936
2395,0.182276,-0.293405,1.028318
2396,0.413645,-0.081299,1.014394
2397,0.379578,0.076051,0.723384
2398,0.221023,-0.058597,0.802103
2399,0.076965,-0.202928,0.957031
2400,-0.010358,-0.312643,1.051617
2401,-0.183013,-0.669429,1.131197
2402,-0.107856,-0.844417,1.151817
2403,0.027446,-0.825135,1.126248
2404,0.258119,-0.806839,0.868843
2405,0.273585,-0.520674,0.313633
2406,0.17232,-0.229097,-0.33107
2407,-1.991801,2.066313,-1.868069
2408,-1.920805,2.622801,-1.184601
2409,-0.228612,0.5316,-0.378412
2410,0.153839,-1.050132,0.126479
2411,-0.82234,-0.741028,0.339571
2412,-1.023041,-0.356497,0.590244
2413,-0.611342,1.795966,0.433712
2414,0.237054,-0.083553,1.299692
2415,0.123877,-0.519896,1.412214
2416,0.050372,-0.604601,0.889163
2417,0.153948,-0.657047,0.676772
2418,0.051861,-0.496496,0.822652
2419,-0.276311,0.118493,1.328153
2420,-0.263204,0.447862,1.076745
2421,0.044293,0.318055,0.597098
2422,0.218447,0.15878,0.293181
2423,0.319725,-0.0567,-0.288801
2424,0.235837,-0.100286,0.106379
2425,0.057634,-0.132178,0.578622
2426,-0.15021,-0.055655,-0.072371
2427,-0.245151,-0.090864,-0.211844
2428,-0.368907,-0.235386,-0.473097
2429,0.000591,-0.062359,0.014993
2430,0.066588,-0.071301,0.220204
2431,-0.043329,-0.004426,0.09663
2432,0.031991,0.105526,-0.134905
2433,0.302617,0.178924,-0.297596
2434,0.268738,0.416271,-0.200712
2435,-0.023431,0.366795,-0.433282
2436,-0.045425,0.336394,-0.177813
2437,-0.121167,0.39403,-0.257134
2438,-0.088019,0.422137,-0.474902
2439,0.047338,0.622572,-0.506426
2440,0.010234,0.663912,-0.479797
2441,-0.232967,0.249852,-0.46784
2442,-0.345401,0.253806,-0.089866
2443,-0.331041,0.483936,1.267344
2444,-0.932466,0.408114,0.794849
2445,-1.234228,0.443259,0.641341
2446,-1.455228,0.154658,0.170768
2447,-0.959411,-0.370502,0.294669
2448,-0.685563,-0.453294,0.348962
2449,-0.351964,-0.428389,0.696077
2450,0.529398,0.074748,0.996818
2451,0.515987,0.169602,0.76053
2452,0.338655,0.036092,0.684751
2453,0.048638,-0.186895,0.954743
2454,-0.097783,-0.511222,1.128981
2455,-0.116309,-0.628953,1.091188
2456,-0.026844,-0.831045,1.105935
2457,0.136936,-0.768788,1.025081
2458,0.217907,-0.605179,0.436601
2459,0.213948,-0.367645,-0.192092
2460,0.019269,0.030657,-1.113789
2461,-1.352143,2.301758,-0.481119
2462,-1.176297,1.808594,-0.526536
2463,-0.348531,-0.087215,-0.152522
2464,-0.095315,-0.786019,-0.112096
2465,-1.004288,-0.680159,0.473012
2466,-1.314694,-0.525403,0.595645
2467,-0.532619,1.492929,0.349842
2468,0.369183,0.19415,1.279395
2469,0.372045,-0.22303,1.528948
2470,0.185373,-0.339629,1.053383
2471,0.122782,-0.406831,0.774807
2472,0.043936,-0.369269,0.758446
2473,-0.087873,0.131428,1.098644
2474,-0.126691,0.491507,1.012035
2475,0.045033,0.343153,0.563964
2476,0.153612,0.16268,0.365288
2477,0.111553,0.031388,-0.281057
2478,0.170232,-0.170009,0.052155
2479,0.033458,-0.227479,0.639569
2480,-0.170281,-0.186017,0.001612
2481,-0.247733,-0.198314,-0.055791
2482,-0.374548,-0.284619,-0.21487
2483,-0.098953,-0.148391,-0.04412
2484,-0.007145,-0.068087,0.157661
2485,0.182562,-0.028114,0.193486
2486,0.059859,0.269294,-0.030855
2487,0.071216,0.348665,-0.221366
2488,0.225062,0.295412,-0.399533
2489,-0.141263,0.377762,-0.37608
2490,-0.147552,0.326693,-0.437163
2491,-0.060406,0.428455,-0.089381
2492,-0.074911,0.175395,-0.534047
2493,-0.060033,0.170237,-0.665214
2494,0.02471,0.469907,-0.656335
2495,-0.023199,0.696037,-0.531993
2496,0.032369,0.664518,-0.344011
2497,-0.024072,0.641766,0.556924
2498,-0.289638,0.562402,1.053715
2499,-0.636528,0.561855,0.912712
2500,-1.182728,0.669751,0.594141
2501,-0.986045,-0.142532,0.335401
2502,-0.799308,-0.191777,0.260313
2503,-0.230853,-0.298137,0.413301
2504,-0.00964,-0.284745,0.658291
2505,0.310673,0.002711,0.924136
2506,0.384677,0.062832,0.897045
2507,0.24868,-0.002537,0.927159
2508,0.138978,-0.071582,0.97803
2509,-0.149353,-0.496752,1.232285
2510,-0.213044,-0.628599,1.261371
2511,-0.193869,-0.8419,1.233213
2512,0.182668,-0.920861,0.856157
2513,0.157255,-0.789192,0.65129
2514,0.017726,-0.154785,0.008505
2515,-0.608809,0.800117,-1.329411
2516,-1.392573,1.332914,-1.544596
2517,-0.021843,0.743163,-0.63025
2518,0.689701,-0.161198,-0.108335
2519,0.129089,-0.285185,0.173115
2520,-0.469156,-0.035025,0.293661
2521,-1.501225,1.832214,-0.412621
2522,-0.066219,0.70303,0.746511
2523,-0.003328,-0.456976,1.369383
2524,0.185982,-0.829748,1.107757
2525,0.329623,-0.739402,0.905247
2526,0.336275,-0.766433,0.845716
2527,-0.351295,0.005568,1.479828
2528,-0.420025,0.517303,1.524437
2529,-0.348164,0.634655,1.207137
2530,0.00832,0.370538,0.568594
2531,0.39886,0.10539,-1.059858
2532,0.356727,-0.012734,-0.256477
2533,0.243552,-0.038835,0.47109
2534,0.134988,-0.107264,0.550183
2535,-0.034034,-0.146435,0.279433
2536,-0.161223,-0.24186,0.050877
2537,-0.437889,-0.478168,-0.317633
2538,-0.2658,-0.397999,0.006096
2539,0.08431,-0.196667,0.454835
2540,0.194435,-0.048666,0.322098
2541,0.089568,0.260733,0.140462
2542,0.194123,0.331722,-0.02514
2543,0.406694,0.437335,-0.292956
2544,0.263839,0.578473,-0.313005
2545,-0.018343,0.354724,-0.302279
2546,0.116341,0.438448,-0.029522
2547,0.188305,0.435254,-0.068538
2548,0.349019,0.621328,-0.255605
2549,0.291974,0.683146,-0.176303
2550,-0.280754,0.598502,-0.264781
2551,-0.485294,0.041712,-0.425846
2552,-0.643374,-0.018557,-0.409562
2553,-0.722901,0.28513,0.97857
2554,-0.764319,0.284128,0.965458
2555,-1.312181,0.06148,0.702942
2556,-1.397029,-0.264081,0.378943
2557,-0.609288,-0.073173,-0.067854
2558,-0.211265,-0.143437,0.138779
2559,-0.025039,-0.259249,0.790987
2560,0.302982,-0.008311,1.064784
2561,0.341086,0.261924,0.860716
2562,0.16764,0.015795,0.699101
2563,0.039802,-0.209303,0.780422
2564,0.014678,-0.442072,0.998675
2565,0.029761,-0.642335,1.118858
2566,0.046379,-0.758301,1.117145
2567,0.049545,-0.741553,1.041601
2568,0.129645,-0.665454,0.802805
2569,0.374791,-0.252981,0.09405
2570,-0.301384,0.549084,-1.236523
2571,-1.327326,1.314809,-1.732979
2572,-1.951973,1.461227,-0.729075
2573,0.055418,-0.368313,-0.476935
2574,0.104732,-0.69842,-0.297938
2575,-0.676741,-0.540515,0.810702
2576,-0.778417,-0.293782,1.29064
2577,-0.448201,0.980762,1.135754
2578,-0.499649,1.419026,-0.830038
2579,0.113082,-0.411188,1.235781
2580,0.061207,-0.706998,1.119056
2581,0.158297,-0.620174,0.816054
2582,0.213759,-0.574893,0.683191
2583,-0.160745,-0.204905,0.905277
2584,-0.34261,0.382021,1.313066
2585,0.022461,0.427699,0.679811
2586,0.18685,0.349463,0.461118
2587,0.338953,0.112666,-0.171317
2588,0.241712,-0.004288,0.266298
2589,0.128863,-0.043454,0.47373
2590,0.102863,-0.131961,0.660585
2591,-0.11546,-0.126993,0.036103
2592,-0.15191,-0.172434,-0.033627
2593,-0.428354,-0.414707,-0.372603
2594,-0.318314,-0.362854,-0.246917
2595,-0.024001,-0.108413,0.194501
2596,-0.052549,0.123111,0.161728
2597,-0.00711,0.17361,0.064901
2598,0.273573,0.205773,-0.258516
2599,0.142127,0.431493,-0.244207
2600,-0.031233,0.33638,-0.390522
2601,-0.074503,0.351923,-0.396055
2602,-0.09999,0.488412,-0.145967
2603,-0.078973,0.470435,-0.382806
2604,-0.076895,0.566108,-0.410094
2605,-0.242276,0.485593,-0.504991
2606,-0.328208,0.184012,-0.519887
2607,-0.362422,0.394019,0.754623
2608,-0.297781,0.441935,1.241472
2609,-0.902541,0.457611,0.782135
2610,-1.459843,0.296522,0.540744
2611,-1.411432,-0.330155,0.023599
2612,-1.034657,-0.531466,0.244792
2613,-0.401688,-0.543609,0.529611
2614,0.257528,-0.371708,1.044775
2615,0.513418,0.016549,0.960428
2616,0.44027,0.107973,0.797875
2617,0.209517,-0.020298,0.773027
2618,0.095416,-0.13308,0.87456
2619,-0.016912,-0.27598,0.983871
2620,-0.124105,-0.644642,1.175776
2621,-0.073027,-0.748252,1.134103
2622,-0.020709,-0.792789,1.05779
2623,0.1857,-0.72184,0.617263
2624,0.163897,0.231439,-0.961374
2625,0.197066,0.201712,-1.019316
2626,-1.791754,2.485707,-1.78874
2627,-0.679124,0.429345,-0.101173
2628,-0.108627,-0.504707,-0.300071
2629,-0.166683,-0.948742,-0.055014
2630,-0.520955,-0.734108,0.929482
2631,-0.825021,0.126429,0.975556
2632,-0.83025,2.117273,-0.109458
2633,0.208764,-0.047024,1.202524
2634,-0.047354,-0.566594,1.189353
2635,0.026025,-0.648421,0.946973
2636,0.104869,-0.590434,0.736626
2637,-0.061042,-0.448087,0.892888
2638,-0.286853,0.105114,1.302736
2639,-0.091719,0.344735,0.794906
2640,0.043766,0.26436,0.604367
2641,0.167203,0.136136,0.320467
2642,0.325751,-0.033003,-0.227015
2643,0.211307,-0.059953,0.208772
2644,0.038838,-0.117619,0.546885
2645,-0.069815,-0.139811,0.310577
2646,-0.221286,-0.103373,0.031208
2647,-0.326373,-0.252474,-0.321287
2648,-0.260473,-0.192604,-0.390706
2649,0.049011,0.005945,0.207627
2650,0.058756,-0.021624,0.239415
2651,0.026044,0.038495,0.154429
2652,0.100143,0.166296,-0.162771
2653,0.290729,0.265551,-0.297738
2654,0.212017,0.381239,-0.242541
2655,-0.180023,0.164765,-0.453504
2656,-0.127651,0.328045,-0.169197
2657,-0.134802,0.354068,-0.132408
2658,-0.159604,0.34522,-0.414182
2659,-0.114441,0.591507,-0.484675
2660,-0.155353,0.596646,-0.444695
2661,-0.250507,0.219709,-0.513288
2662,-0.310145,0.349939,0.993147
2663,-0.267185,0.33696,1.358353
2664,-0.456807,0.326229,1.186156
2665,-1.227236,0.324051,0.641067
2666,-1.218517,-0.247953,0.522838
2667,-1.190003,-0.323627,0.139494
2668,-0.479971,-0.396138,0.301436
2669,0.087355,-0.267448,0.891005
2670,0.258657,-0.002598,0.84134
2671,0.300371,-0.041174,0.794041
2672,0.131121,-0.106241,0.82785
2673,0.039447,-0.141296,0.873378
2674,-0.082179,-0.36232,0.990716
2675,-0.107679,-0.532378,0.998425
2676,-0.044027,-0.663568,1.049939
2677,0.012322,-0.760954,0.988464
2678,0.119271,-0.734424,0.724779
2679,0.241825,-0.499357,0.08341
2680,-0.069653,0.196933,-1.221625
2681,-1.231801,1.788516,-1.126551
2682,-1.057849,1.046088,-0.643658
2683,-0.194184,-0.144377,-0.255033
2684,-0.330899,-0.638988,0.18377
2685,-0.551428,-0.579364,0.562188
2686,-0.870853,-0.178238,0.791204
2687,-0.515019,0.894748,0.23382
2688,0.166945,0.029799,0.967551
2689,0.217158,-0.355791,1.248
2690,0.018891,-0.463295,0.846717
2691,0.038009,-0.408649,0.780183
2692,-0.136124,-0.03797,1.060473
2693,-0.144198,0.166127,1.141921
2694,-0.030189,0.430111,0.757347
2695,0.129024,0.212285,0.389577
2696,0.140111,0.056644,-0.123992
2697,0.067042,-0.064724,-0.142435
2698,0.015924,-0.187662,0.48401
2699,0.010665,-0.229429,0.56099
2700,-0.034627,-0.257112,0.61536
2701,-0.200072,-0.240282,0.136355
2702,-0.238756,-0.20781,0.119157
2703,-0.225225,-0.233611,-0.066306
2704,-0.099412,-0.067711,-0.277017
2705,-0.002362,0.02967,0.266764
2706,0.069937,0.007105,0.289482
2707,-0.110715,0.132598,-0.04752
2708,0.067041,0.107326,-0.226819
2709,0.173129,0.128243,-0.312141
2710,-0.066894,0.412851,-0.336151
2711,-0.190249,0.261851,-0.179914
2712,-0.164408,0.285187,-0.035645
2713,-0.176352,0.245411,-0.319453
2714,-0.110784,0.54079,-0.436729
2715,-0.0901,0.666003,-0.447792
2716,-0.05156,0.673417,-0.455615
2717,-0.091064,0.279059,-0.478042
2718,-0.36833,0.13519,0.106192
2719,-0.344282,0.296335,1.310164
2720,-0.665613,0.27121,1.002137
2721,-1.142815,0.308063,0.636126
2722,-1.139609,0.024969,0.080125
2723,-1.014993,-0.12498,0.152322
2724,-0.66325,-0.320268,0.414737
2725,-0.12239,-0.310544,0.879788
2726,0.301957,-0.060617,0.957581
2727,0.29302,0.038968,0.72343
2728,0.266846,-0.077031,0.768076
2729,-0.015753,-0.250842,0.858974
2730,-0.090748,-0.319265,0.954801
2731,-0.102449,-0.515677,1.033701
2732,-0.02959,-0.803313,1.039107
2733,0.007124,-0.78912,0.990428
2734,0.042459,-0.820534,0.710456
2735,0.142983,-0.379982,-0.339345
2736,-0.480857,0.481491,-1.483404
2737,-1.838973,2.391041,-0.837815
2738,-0.618818,0.483705,-0.372482
2739,-0.149743,-0.112545,-0.225844
2740,-0.364724,-0.645428,0.26101
2741,-0.860434,-0.078239,0.433005
2742,-0.786468,1.268378,0.156978
2743,-0.155649,0.62581,0.942597
2744,0.129969,-0.325808,1.30702
2745,0.037128,-0.59857,0.940479
2746,0.091671,-0.581313,0.860889
2747,0.070426,-0.5453,0.729202
2748,-0.18201,-0.211285,1.054078
2749,-0.190797,0.425734,1.129341
2750,-0.098598,0.410042,0.841058
2751,0.017924,0.344677,0.660633
2752,0.179501,0.104129,0.303038
2753,0.223072,-0.079237,-0.46394
2754,0.245528,-0.157573,-0.144953
2755,0.045678,-0.221807,0.630042
2756,-0.091012,-0.13503,0.241839
2757,-0.200947,-0.11236,0.059528
2758,-0.545305,-0.341647,-0.724716
2759,-0.08547,0.081844,0.194573
2760,0.01853,0.044666,0.412606
2761,0.081037,-0.062576,0.292949
2762,-0.055685,0.092136,0.043429
2763,0.028031,0.131689,-0.102224
2764,0.176527,0.080454,-0.299989
2765,0.11647,0.24957,-0.243641
2766,-0.136581,0.181444,-0.289752
2767,-0.08043,0.290055,-0.014416
2768,-0.068042,0.389861,-0.068732
2769,-0.037099,0.483964,-0.221947
2770,-0.027963,0.65029,-0.341649
2771,-0.155292,0.808863,-0.467106
2772,-0.18953,0.32831,-0.428558
2773,-0.417238,-0.010109,-0.290843
2774,-0.230935,0.181241,1.215378
2775,-0.377325,0.188274,1.060866
2776,-0.837981,0.26823,0.796764
2777,-1.134528,0.146442,0.557708
2778,-0.88947,-0.039772,0.002108
2779,-0.25284,-0.248846,0.637128
2780,-0.039371,-0.241838,0.892535
2781,0.112883,-0.169221,0.977213
2782,0.248438,-0.07105,0.789026
2783,0.22563,-0.10588,0.787158
2784,0.170088,-0.152832,0.756167
2785,-0.023019,-0.371419,0.955655
2786,-0.07303,-0.469769,1.032991
2787,-0.022161,-0.716222,1.063478
2788,0.051518,-0.842967,0.951517
2789,0.145862,-0.772746,0.77315
2790,0.079499,-0.538014,0.370102
2791,-0.509979,0.232402,-0.885968
2792,-1.760878,2.063261,-1.614324
2793,-1.719802,2.383788,-0.95284
2794,0.164497,-0.151872,-0.267475
2795,0.213352,-0.658752,0.02143
2796,0.001483,-0.674948,0.138038
2797,-0.772027,0.03847,0.427255
2798,-1.125103,1.491343,0.736905
2799,-0.771955,1.587638,0.834654
2800,0.08856,-0.570711,1.120421
2801,0.127339,-0.700761,1.058523
2802,0.073674,-0.584264,0.802503
2803,0.023643,-0.627055,0.709461
2804,-0.345466,0.115869,1.409632
2805,-0.341464,0.319865,1.319075
2806,-0.10856,0.354389,0.774267
2807,0.185955,0.154351,0.173126
2808,0.282326,0.202686,-0.559028
2809,0.370137,0.046444,-0.063532
2810,0.118589,-0.09982,0.491995
2811,-0.013033,-0.104663,0.376154
2812,-0.1112,-0.079176,0.15911
2813,-0.161676,-0.150171,0.134947
2814,-0.428667,-0.451677,-0.429297
2815,-0.311351,-0.323878,-0.23172
2816,0.050707,0.019487,0.367826
2817,0.033837,0.078484,0.248895
2818,0.002865,0.186962,-0.015369
2819,0.29949,0.168627,-0.260913
2820,0.284361,0.274988,-0.215295
2821,-0.020714,0.267563,-0.29346
2822,-0.114738,0.341628,0.024486
2823,-0.106632,0.359223,-0.011511
2824,-0.076147,0.323993,-0.440496
2825,-0.012665,0.438147,-0.513438
2826,0.063578,0.675051,-0.489567
2827,-0.025459,0.54244,-0.374214
2828,-0.08935,0.396906,-0.360351
2829,-0.337832,0.535631,1.101457
2830,-0.47115,0.403631,1.208635
2831,-1.045058,0.454899,0.731832
2832,-1.426612,0.215521,0.376913
2833,-1.394959,-0.366859,0.205319
2834,-1.406195,-0.358056,0.240556
2835,-0.200821,-0.445505,0.559723
2836,0.250428,-0.245173,0.91758
2837,0.380404,-0.007358,0.970335
2838,0.499008,0.137966,0.766696
2839,0.245086,-0.00087,0.86358
2840,0.137035,-0.093572,0.957218
2841,-0.154122,-0.509304,1.100997
2842,-0.16413,-0.62222,1.130781
2843,-0.08497,-0.732272,1.13906
2844,0.010456,-0.718891,1.094773
2845,0.170017,-0.651201,0.551097
2846,-0.267431,0.292657,-1.140297
2847,-0.892446,1.052984,-1.591144
2848,-1.652633,2.230546,-0.838976
2849,-0.089212,-0.082455,-0.204858
2850,0.049414,-0.451924,-0.093551
2851,0.090914,-0.725841,0.240581
2852,-1.122751,0.239478,0.630865
2853,-1.495312,1.204406,0.342034
2854,-0.638208,0.977683,0.452467
2855,0.255504,-0.585339,1.500127
2856,0.17412,-0.676985,1.165179
2857,0.203516,-0.605361,0.902432
2858,0.167261,-0.547146,0.737609
2859,-0.159943,-0.203178,1.006797
2860,-0.337289,0.413939,1.542315
2861,-0.06645,0.518427,0.973893
2862,0.2066,0.331714,0.438343
2863,0.281025,0.167175,-0.420457
2864,0.291296,0.037924,-0.31018
2865,0.226807,0.049033,0.085316
2866,0.094961,-0.128442,0.571667
2867,-0.016786,-0.220462,0.363922
2868,-0.179214,-0.123216,0.190206
2869,-0.462666,-0.448133,-0.319933
2870,-0.410702,-0.520382,-0.451752
2871,0.046656,-0.059713,0.280057
2872,0.064989,0.082085,0.23308
2873,0.018327,0.197349,0.108548
2874,0.131944,0.206129,-0.20872
2875,0.212538,0.274594,-0.246477
2876,0.030379,0.36157,-0.37154
2877,0.077278,0.306412,-0.147653
2878,0.039146,0.445349,0.130114
2879,-0.090948,0.39764,-0.085055
2880,-0.155183,0.426792,-0.298272
2881,-0.078518,0.702526,-0.536492
2882,-0.094849,0.656409,-0.463053
2883,-0.138183,0.488805,-0.383014
2884,-0.429305,0.352077,0.338372
2885,-0.317463,0.297729,1.24501
2886,-0.505961,0.248717,1.132431
2887,-1.405631,0.268496,0.719664
2888,-1.295973,-0.378462,0.806332
2889,-1.199637,-0.424998,0.651968
2890,-0.269363,-0.393287,0.193547
2891,0.429567,0.158219,1.063795
2892,0.410104,0.351732,1.045194
2893,0.314513,0.183831,0.809585
2894,0.120521,0.034908,0.883912
2895,-0.119147,-0.3062,1.051826
2896,-0.185208,-0.49959,1.052708
2897,-0.148304,-0.593869,1.016021
2898,0.001823,-0.591486,0.977157
2899,0.133442,-0.583378,0.892453
2900,0.168782,-0.575334,0.708819
2901,0.181398,-0.479224,0.089637
2902,-0.086868,0.138897,-1.297936
2903,-1.086269,1.73941,-0.936791
2904,-1.073316,1.447427,-0.594666
2905,-0.071125,-0.022162,-0.218935
2906,0.178478,-0.626681,-0.190431
2907,0.083197,-0.769442,0.258664
2908,-0.793504,-0.67188,1.430997
2909,-1.642003,1.614723,-0.243838
2910,-1.200302,1.892722,-0.892485
2911,0.390731,-0.392736,1.435058
2912,0.376204,-0.497095,1.323879
2913,0.271989,-0.522822,1.035265
2914,0.149949,-0.331698,0.868186
2915,-0.063946,-0.107336,1.012282
2916,-0.103195,0.604059,1.255703
2917,0.063959,0.479211,0.661394
2918,0.141475,0.366079,0.476399
2919,0.062737,-0.000711,-0.611742
2920,0.029418,-0.083284,-0.004095
2921,0.039123,-0.185542,0.40543
2922,0.038333,-0.259964,0.593561
2923,-0.089136,-0.191063,0.328569
2924,-0.13983,-0.198533,0.225179
2925,-0.380444,-0.444929,-0.330872
2926,-0.094803,-0.227108,-0.256799
2927,0.034589,-0.030922,0.242427
2928,0.08891,-0.024661,0.21651
2929,-0.015922,0.151985,0.117974
2930,0.119207,0.083233,-0.079235
2931,0.201144,0.243987,-0.35349
2932,0.001616,0.388944,-0.395047
2933,-0.09745,0.262943,-0.248356
2934,-0.074518,0.427038,-0.062291
2935,-0.037059,0.351884,-0.368218
2936,0.002772,0.381058,-0.637804
2937,0.098939,0.527095,-0.470631
2938,0.058481,0.592861,-0.458423
2939,0.036997,0.384237,-0.020639
2940,-0.12614,0.511055,0.495543
2941,-0.37526,0.739455,1.325102
2942,-0.939158,0.715825,0.931033
2943,-1.391,0.621865,0.681271
2944,-1.42804,0.274948,0.691783
2945,-0.990703,-0.300386,0.313772
2946,-0.490945,-0.341331,0.210259
2947,-0.248676,-0.336069,0.427103
2948,0.271846,0.068714,0.9988
2949,0.41218,0.182033,0.966978
2950,0.261545,0.042044,0.943715
2951,0.094779,-0.114271,1.015753
2952,-0.11472,-0.33105,1.161082
2953,-0.15971,-0.500572,1.247071
2954,-0.160161,-0.75245,1.25091
2955,0.11396,-0.840128,1.19345
2956,0.221419,-0.74868,0.867007
2957,0.222698,-0.475283,0.397222
2958,0.131702,-0.196374,-0.042691
2959,-1.452715,1.964328,-1.696997
2960,-0.869888,1.408799,-0.912611
2961,0.232587,0.03999,-0.218499
2962,0.411203,-0.774572,-0.023155
2963,0.39832,-0.81657,0.464298
2964,-0.204217,-0.642582,1.389633
2965,-1.251662,-0.011181,1.652436
2966,-1.794389,3.294286,-1.988568
2967,-0.473456,-0.020915,0.772564
2968,0.217554,-0.825688,1.306392
2969,0.251675,-0.801793,1.129183
2970,0.213002,-0.603681,1.129292
2971,-0.237166,-0.123838,1.29036
2972,-0.417165,0.165492,1.368829
2973,-0.262191,0.392097,1.092898
2974,-0.019521,0.279283,0.621881
2975,0.048838,0.187133,0.270986
2976,0.303113,-0.069744,-0.376363
2977,0.040217,-0.144698,0.401213
2978,-0.086703,0.054837,0.137622
2979,-0.17513,0.046145,-0.020315
2980,-0.199849,-0.252744,-0.011014
2981,-0.109948,-0.36038,0.034598
2982,-0.039446,-0.280804,0.14556
2983,0.022471,-0.109525,0.299536
2984,0.028376,0.023989,0.149377
2985,0.094224,0.293767,-0.163479
2986,0.254185,0.446051,-0.494193
2987,0.001847,0.228405,-0.407227
2988,-0.142705,0.206327,-0.256039
2989,-0.21055,0.201853,-0.184466
2990,0.021608,0.343223,-0.178041
2991,0.117476,0.539512,-0.156001
2992,0.272314,0.716828,-0.000283
2993,0.08411,0.652366,-0.085756
2994,-0.08187,0.311741,-0.216497
2995,-0.520653,0.262352,-0.048612
2996,-0.612464,0.24376,1.168101
2997,-0.704515,0.23319,1.089685
2998,-1.001522,0.110173,0.712009
2999,-1.073734,-0.086095,0.304006
3000,-0.892729,-0.186345,0.234348
3001,-0.543609,-0.226572,0.422899
3002,-0.124893,-0.358345,0.880992
3003,0.162531,-0.045698,0.895311
3004,0.221637,0.186931,0.69451
3005,0.172672,0.004967,0.707794
3006,0.105363,-0.035362,0.821353
3007,-0.088961,-0.233645,0.9953
3008,-0.118082,-0.359364,1.022154
3009,-0.14354,-0.527289,1.01064
3010,-0.14499,-0.678603,0.932506
3011,0.024512,-0.656838,0.874576
3012,0.131935,-0.546879,0.577489
3013,0.032887,-0.187435,-0.236256
3014,-0.136098,0.66232,-1.062136
3015,-0.515555,1.016102,-0.916933
3016,-0.585613,0.606766,-0.466082
3017,0.069054,-0.005594,-0.160082
3018,0.206583,-0.243269,-0.034028
3019,-0.040089,-0.417316,0.175181
3020,-1.063228,-0.165419,1.158071
3021,-1.541509,0.082909,1.245547
3022,0.246317,0.522876,0.085501
3023,0.208765,-0.324646,1.263487
3024,-0.033849,-0.531858,1.259028
3025,-0.092596,-0.497759,0.893284
3026,-0.086885,-0.522509,0.753428
3027,-0.116013,-0.465154,0.82168
3028,-0.296716,0.374097,1.376117
3029,-0.26906,0.517436,1.235967
3030,-0.047733,0.358951,0.704303
3031,0.165469,0.198747,0.300129
3032,0.258651,0.165348,-0.540399
3033,0.153649,0.0231,0.362731
3034,0.095185,-0.162839,0.461383
3035,0.074045,-0.286924,0.58955
3036,0.030496,-0.279148,0.381004
3037,-0.146745,-0.207485,0.078655
3038,-0.229029,-0.196863,-0.190776
3039,-0.225001,-0.219171,-0.323085
3040,-0.029466,-0.038299,0.244269
3041,-0.074022,0.085587,0.27096
3042,-0.088478,0.206911,-0.148801
3043,0.215453,0.161749,-0.32167
3044,0.227574,0.348256,-0.278776
3045,0.007816,0.278736,-0.191823
3046,-0.128567,0.230275,-0.091033
3047,-0.284477,0.209086,-0.350889
3048,-0.147432,0.246684,-0.484769
3049,0.017274,0.640823,-0.424816
3050,0.094614,0.82752,-0.428645
3051,0.098217,0.726791,-0.438566
3052,-0.245636,0.313946,-0.349508
3053,-0.464631,0.492494,1.060606
3054,-0.430628,0.40113,1.293891
3055,-0.968768,0.470465,0.919834
3056,-1.34124,0.174415,0.303806
3057,-1.2537,-0.143011,0.168248
3058,-1.27232,-0.281645,0.401944
3059,-0.516342,-0.533918,0.637587
3060,0.076079,-0.283495,1.115479
3061,0.326097,0.04577,0.935649
3062,0.343479,0.049452,0.785798
3063,0.217659,-0.010985,0.873068
3064,0.140123,-0.077252,0.974101
3065,-0.06468,-0.501714,1.119028
3066,-0.121826,-0.783421,1.165704
3067,0.027153,-0.783865,1.188362
3068,0.136562,-0.769421,0.883935
3069,0.202797,-0.667561,0.611205
3070,-0.156024,0.294487,-1.364291
3071,-0.602575,1.08778,-1.710158
3072,-1.819953,2.177392,-0.967756
3073,-0.031215,-0.215246,-0.279907
3074,0.198557,-0.730895,-0.163338
3075,0.131988,-0.886309,0.329089
3076,-0.941066,-0.192388,1.518002
3077,-1.186844,0.475363,1.154661
3078,-1.188523,2.470461,-0.951309
3079,0.026965,-0.65317,1.489688
3080,0.036431,-0.770381,1.170442
3081,0.076586,-0.772869,0.927763
3082,0.214734,-0.734996,0.752169
3083,-0.20681,-0.135347,1.238535
3084,-0.417823,0.564444,1.573224
3085,-0.136647,0.51498,0.878491
3086,0.139814,0.260805,0.482296
3087,0.138909,0.083477,-0.487823
3088,0.252889,-0.10566,-0.120299
3089,0.058573,-0.14992,0.596538
3090,0.000129,-0.17309,0.537942
3091,-0.182103,-0.134962,0.119887
3092,-0.244101,-0.230243,-0.005831
3093,-0.392781,-0.490407,-0.354121
3094,-0.267421,-0.295817,-0.052682
3095,-0.048499,-0.098326,0.359246
3096,-0.025137,-0.046947,0.317406
3097,0.02614,0.205879,-0.149428
3098,0.290675,0.281345,-0.363149
3099,0.309837,0.414394,-0.321559
3100,-0.07047,0.306993,-0.447854
3101,-0.171392,0.325723,-0.088537
3102,-0.228044,0.283367,-0.337015
3103,-0.121626,0.414291,-0.463049
3104,0.017376,0.696119,-0.394226
3105,-0.002123,0.617731,-0.336823
3106,-0.044163,0.464856,-0.284983
3107,-0.521513,0.434134,0.505768
3108,-0.47348,0.450593,1.382961
3109,-0.702201,0.434493,1.142507
3110,-1.443543,0.340642,0.591352
3111,-1.299509,-0.258242,0.432235
3112,-0.759603,-0.413169,0.331503
3113,-0.564442,-0.506026,0.431598
3114,0.32108,-0.051061,1.10088
3115,0.503031,0.213622,0.829619
3116,0.303257,0.041208,0.789796
3117,0.065792,-0.160477,0.938189
3118,-0.093178,-0.366776,1.118347
3119,-0.17925,-0.595696,1.162731
3120,-0.172322,-0.70738,1.106772
3121,-0.008608,-0.789716,1.101067
3122,0.120631,-0.764068,0.893287
3123,0.182764,-0.524736,0.38495
3124,-0.140058,0.0495,-0.590407
3125,-1.238616,1.634899,-1.59507
3126,-1.717587,2.385294,-1.273496
3127,-0.073074,0.062253,-0.128595
3128,0.050762,-0.379589,-0.120593
3129,-0.142604,-0.577188,0.38786
3130,-0.888444,-0.233956,0.723753
3131,-1.022465,0.579411,0.371608
3132,-0.265739,1.874019,-0.425068
3133,0.024852,-0.244935,1.385394
3134,-0.084657,-0.721491,1.36692
3135,-0.0582,-0.671382,1.033808
3136,-0.027368,-0.581501,0.781375
3137,-0.159919,-0.497583,0.807526
3138,-0.427445,0.073277,1.347122
3139,-0.439296,0.517495,1.480861
3140,-0.017864,0.323872,0.769455
3141,0.257129,0.145103,0.3858
3142,0.299336,0.00856,-0.629249
3143,0.238,-0.091599,0.130602
3144,0.010945,-0.122015,0.547126
3145,-0.071614,-0.134485,0.364403
3146,-0.168892,-0.109854,0.165883
3147,-0.127317,-0.170289,0.18057
3148,-0.228228,-0.354098,-0.220232
3149,-0.271154,-0.318965,-0.37999
3150,-0.090303,-0.084453,0.25498
3151,0.000236,-0.069614,0.364679
3152,-0.04487,0.051292,0.128539
3153,0.042554,0.167958,-0.116458
3154,0.203358,0.218126,-0.210751
3155,-0.038371,0.310234,-0.14877
3156,-0.28389,0.269197,-0.40234
3157,-0.096975,0.309325,-0.040137
3158,-0.110547,0.206669,-0.260615
3159,-0.132441,0.443779,-0.519653
3160,-0.109495,0.768635,-0.459821
3161,-0.160935,0.751321,-0.526006
3162,-0.266917,0.226196,-0.495313
3163,-0.40223,0.246331,0.538115
3164,-0.256712,0.342999,1.421808
3165,-0.669723,0.278869,1.066963
3166,-1.083953,0.277769,0.602138
3167,-1.003483,0.024833,-0.128973
3168,-1.056642,-0.131331,0.206854
3169,-0.521951,-0.338317,0.535809
3170,-0.033211,-0.307829,0.939737
3171,0.334725,-0.009442,0.952828
3172,0.256788,-0.063641,0.718437
3173,0.211444,-0.088096,0.754684
3174,-0.02205,-0.248291,0.946175
3175,-0.126887,-0.473159,1.024242
3176,-0.133752,-0.672917,1.029289
3177,-0.10489,-0.695491,1.045422
3178,0.037011,-0.713378,0.999609
3179,0.093663,-0.738054,0.895928
3180,0.094518,-0.661327,0.507698
3181,-0.560689,0.480279,-1.642476
3182,-1.010234,1.47056,-1.993411
3183,-1.211975,1.734537,-0.544646
3184,0.062837,-0.31505,-0.291887
3185,0.174904,-0.646306,-0.135438
3186,-0.163208,-0.766941,0.722152
3187,-1.097992,-0.206084,1.485539
3188,-1.428828,1.463792,0.524958
3189,-0.5193,1.471589,-0.444053
3190,0.054504,-0.453315,1.444577
3191,0.196024,-0.627296,1.214058
3192,0.235321,-0.498798,0.973536
3193,0.24815,-0.456379,0.924831
3194,-0.047674,0.300568,1.367972
3195,-0.05406,0.286532,1.333871
3196,-0.115363,0.335507,0.846377
3197,-0.038587,0.237272,0.577053
3198,-0.070819,0.015678,-0.021765
3199,0.036899,-0.316473,-0.260134
3200,-0.039666,-0.311908,0.476532
3201,-0.05817,-0.319058,0.451738
3202,-0.188352,-0.165067,0.056506
3203,-0.288,-0.199897,-0.283066
3204,-0.086565,-0.162746,-0.311842
3205,0.05516,-0.022533,0.201023
3206,0.086079,-0.094888,0.306647
3207,-0.089273,-0.078882,0.008209
3208,-0.08435,0.020061,-0.065094
3209,0.207573,0.141532,-0.308144
3210,0.151401,0.411225,-0.250773
3211,-0.087928,0.335295,-0.225154
3212,-0.189967,0.32791,-0.28355
3213,-0.267075,0.269896,-0.521185
3214,-0.057983,0.67725,-0.317123
3215,0.042901,0.746722,-0.193261
3216,-0.016794,0.697881,-0.23693
3217,-0.186985,0.591681,0.069061
3218,-0.339232,0.477298,1.376583
3219,-0.529291,0.413943,1.069241
3220,-0.936727,0.444245,0.644915
3221,-1.059583,0.233002,0.468565
3222,-0.99589,0.030029,0.544742
3223,-0.551887,0.033442,0.489347
3224,-0.354006,-0.259327,0.516847
3225,-0.201892,-0.317761,0.707983
3226,0.287438,0.02015,0.913575
3227,0.254313,-0.13342,0.872934
3228,0.157536,-0.166972,0.917565
3229,0.007128,-0.316416,1.017134
3230,-0.12222,-0.534799,1.05317
3231,-0.20935,-0.815151,1.070188
3232,-0.142655,-0.838656,1.024596
3233,0.000492,-0.837165,0.899974
3234,-0.035466,-0.753431,0.710761
3235,-0.165766,-0.298736,-0.135409
3236,-0.252077,1.189497,-2.116723
3237,-0.423566,2.10986,-0.880259
3238,-0.383004,0.677407,-0.29758
3239,0.143825,0.002937,-0.049824
3240,0.354944,-0.546021,0.153072
3241,0.152571,-0.696336,0.102929
3242,-0.250004,-0.720067,1.312688
3243,-1.2098,-0.08653,1.726268
3244,-1.746209,2.881794,-1.142733
3245,-0.106933,0.292011,1.012545
3246,-0.020049,-0.417877,1.429878
3247,0.163233,-0.572461,1.056481
3248,0.346174,-0.510615,0.936516
3249,0.271046,-0.355996,1.082488
3250,-0.043447,0.138592,1.229738
3251,-0.090276,0.500123,0.982803
3252,-0.028414,0.427904,0.788097
3253,0.019801,0.332439,0.607355
3254,0.179269,-0.176239,0.043506
3255,0.130386,-0.234526,0.447063
3256,0.048233,-0.25571,0.652591
3257,-0.12486,-0.124572,0.250398
3258,-0.208568,-0.121711,0.229411
3259,-0.239432,-0.368303,-0.148326
3260,0.003326,-0.122018,0.098556
3261,0.063293,-0.041005,0.250925
3262,0.061198,0.12325,0.111596
3263,0.130902,0.240756,-0.073212
3264,0.323013,0.284989,-0.267181
3265,0.179248,0.524933,-0.173214
3266,-0.060557,0.257712,-0.124555
3267,-0.126584,0.271781,-0.130674
3268,-0.186111,0.22129,-0.336717
3269,-0.196362,0.180702,-0.437638
3270,-0.06297,0.383371,-0.624327
3271,-0.039187,0.652964,-0.496991
3272,0.045733,0.632379,-0.383817
3273,-0.136566,0.608518,0.267835
3274,-0.17226,0.773527,1.449759
3275,-0.507679,0.556069,1.143714
3276,-1.154535,0.739011,0.775235
3277,-1.367586,0.435406,0.48992
3278,-0.901429,-0.179837,0.219015
3279,-0.721032,-0.144326,0.392767
3280,-0.228712,-0.367263,0.640715
3281,0.308913,-0.111988,1.033014
3282,0.341246,-0.111556,0.965092
3283,0.323401,-0.132407,0.90788
3284,0.2236,-0.10551,0.997592
3285,0.184661,-0.113064,1.037037
3286,-0.049582,-0.552114,1.195374
3287,-0.161115,-0.761236,1.298726
3288,0.019477,-0.84986,1.318276
3289,0.195082,-0.78751,1.161069
3290,0.144508,-0.549432,0.724229
3291,-0.05565,0.128744,-0.31259
3292,-1.679016,1.621371,-2.094821
3293,-1.323395,2.920125,-0.988551
3294,-0.099428,0.291964,-0.036694
3295,0.100015,-0.914048,0.123814
3296,0.359423,-1.125866,0.09953
3297,0.044782,-0.893871,1.131885
3298,-0.872937,0.370065,1.227238
3299,-1.009546,2.691509,-0.1999
3300,-0.080031,-0.001053,0.863611
3301,-0.262908,-0.338493,1.104906
3302,0.091119,-0.496892,0.97929
3303,0.216874,-0.328154,1.018878
3304,0.045601,0.106837,1.203551
3305,0.02218,0.435503,1.216994
3306,0.114666,0.401223,0.901902
3307,0.1512,0.233835,0.608955
3308,0.051775,0.089857,0.294827
3309,0.10548,-0.164121,0.032902
3310,-0.007373,-0.311633,0.562191
3311,-0.111521,-0.381835,0.503025
3312,-0.244037,-0.223305,0.220948
3313,-0.247256,-0.263374,-0.014613
3314,-0.10223,-0.196485,0.06039
3315,0.076526,-0.066672,0.315345
3316,0.211529,-0.02858,0.328528
3317,0.101945,0.015674,0.195277
3318,-0.056707,0.190484,0.128186
3319,0.090413,0.208019,-0.085127
3320,0.152144,0.337841,-0.259751
3321,-0.030811,0.323778,-0.319542
3322,0.023358,0.34379,0.185237
3323,0.007027,0.448723,0.19648
3324,0.031859,0.351121,-0.115517
3325,0.093851,0.276478,-0.293445
3326,0.137906,0.604699,-0.344722
3327,0.073326,0.703836,-0.179253
3328,-0.000256,0.492709,-0.148419
3329,-0.1115,0.145957,-0.191142
3330,-0.447932,0.311446,0.495827
3331,-0.429405,0.382915,1.20766
3332,-0.935504,0.277296,0.745475
3333,-1.101911,0.167188,0.65896
3334,-1.040022,-0.0403,0.19118
3335,-0.516293,-0.189558,0.282079
3336,-0.389728,-0.321169,0.576191
3337,-0.185686,-0.275831,0.897827
3338,0.346142,0.11716,0.784848
3339,0.262618,0.091174,0.784139
3340,0.208409,0.019631,0.774442
3341,0.091069,-0.033574,0.915677
3342,-0.027784,-0.28282,1.051211
3343,-0.100813,-0.53975,1.147437
3344,-0.086158,-0.656305,1.163346
3345,0.051515,-0.61316,1.158874
3346,0.166906,-0.602125,0.780672
3347,0.134009,-0.198137,0.054051
3348,-0.097126,0.137676,-0.841819
3349,-1.756229,2.307674,-1.121622
3350,-1.102095,1.701422,-0.710274
3351,-0.118899,0.17657,-0.14204
3352,0.141733,-0.720874,0.382879
3353,-0.282513,-0.71554,0.677315
3354,-0.877741,-0.254487,0.833541
3355,-0.843665,1.979998,0.031141
3356,-0.100544,1.35838,0.190482
3357,0.067535,-0.534466,1.37408
3358,0.111345,-0.589523,1.030095
3359,0.259438,-0.550454,0.805965
3360,0.092037,-0.369555,1.03905
3361,-0.177064,0.272332,1.457453
3362,-0.087813,0.518115,1.196874
3363,0.137691,0.374157,0.67958
3364,0.226504,0.172986,0.344254
3365,0.160633,-0.026945,-0.577271
3366,0.213815,-0.026349,0.363842
3367,0.091391,-0.123515,0.658165
3368,-0.001685,-0.123834,0.389599
3369,-0.132771,-0.067121,0.257959
3370,-0.149711,-0.203728,0.07625
3371,-0.163955,-0.347134,-0.135668
3372,-0.065914,-0.241878,-0.035176
3373,0.077602,-0.09634,0.445211
3374,-0.09802,0.202022,0.22869
3375,-0.046193,0.242407,0.110142
3376,0.237843,0.263076,-0.254435
3377,0.261955,0.385648,-0.296152
3378,-0.031,0.308233,-0.419606
3379,-0.019852,0.308032,-0.048082
3380,0.074009,0.480444,-0.087362
3381,0.091214,0.486563,-0.167639
3382,0.09967,0.529945,-0.225094
3383,-0.159097,0.587743,-0.327885
3384,-0.170303,0.391832,-0.309149
3385,-0.214147,0.209694,-0.289394
3386,-0.327389,0.462321,1.347304
3387,-0.365322,0.346036,1.305525
3388,-0.576635,0.28023,1.130622
3389,-1.172167,-0.012378,0.348436
3390,-1.101631,-0.166797,0.139423
3391,-1.065959,-0.208986,0.21962
3392,-0.044306,-0.279821,0.877897
3393,0.160847,-0.170361,0.983984
3394,0.395178,0.129691,0.950761
3395,0.381639,0.135169,0.844684
3396,0.28113,0.082992,0.85515
3397,0.051991,-0.028965,0.963457
3398,-0.087696,-0.333198,1.064886
3399,-0.135548,-0.554383,1.174829
3400,-0.028705,-0.651284,1.151276
3401,0.111144,-0.664662,0.99409
3402,0.150131,-0.642898,0.801972
3403,0.109598,-0.092991,-0.114971
3404,-0.922497,1.239921,-1.718114
3405,-1.710348,2.469535,-1.882869
3406,-0.324394,0.242907,-0.215171
3407,-0.087117,-0.26575,-0.202871
3408,0.197596,-0.900968,0.063859
3409,-0.61075,-0.724814,0.676267
3410,-1.240867,0.116587,0.820273
3411,0.049391,1.532233,0.526248
3412,0.355013,-0.389897,1.464159
3413,0.200677,-0.516831,1.379696
3414,0.035425,-0.466563,0.920198
3415,0.101411,-0.441236,0.810542
3416,-0.105089,-0.191664,1.032635
3417,-0.22561,0.281902,1.327197
3418,-0.106288,0.472276,1.009289
3419,0.139838,0.243205,0.569799
3420,0.18139,0.144767,0.316763
3421,0.217596,0.017682,-0.284355
3422,0.213189,-0.033789,0.538826
3423,0.1411,-0.226988,0.74744
3424,0.074453,-0.287529,0.612035
3425,-0.253523,-0.098003,-0.045218
3426,-0.458517,-0.299094,-0.389519
3427,-0.322302,-0.253271,-0.344381
3428,0.126853,-0.013523,0.419465
3429,0.136278,-0.008141,0.411939
3430,-0.065796,0.13228,0.161763
3431,0.121504,0.162679,-0.109817
3432,0.3237,0.270118,-0.231186
3433,0.165952,0.466405,-0.196595
3434,-0.024322,0.314633,-0.203368
3435,-0.023381,0.460681,0.093162
3436,-0.055911,0.394947,-0.153187
3437,-0.006318,0.404791,-0.365996
3438,0.069775,0.629671,-0.259795
3439,0.013335,0.697874,-0.18238
3440,-0.040299,0.382332,-0.147529
3441,-0.380528,0.280923,0.157608
3442,-0.419841,0.436702,1.240015
3443,-0.67145,0.357654,1.059875
3444,-1.159112,0.341322,0.77352
3445,-1.149567,-0.187686,0.374265
3446,-0.891737,-0.188485,0.150634
3447,-0.62691,-0.241466,0.409095
3448,0.025567,-0.210218,1.113161
3449,0.288312,0.095384,1.05229
3450,0.299831,0.137753,0.881969
3451,0.11954,0.05613,0.883758
3452,0.01246,-0.093503,0.946977
3453,-0.111324,-0.373498,1.091012
3454,-0.162255,-0.588999,1.193501
3455,-0.088092,-0.681466,1.183436
3456,0.129532,-0.718037,1.170682
3457,0.178605,-0.693781,0.875346
3458,0.256041,-0.367069,0.326363
3459,-0.188743,0.427847,-1.246991
3460,-1.164009,2.217642,-1.057729
3461,-1.34375,2.363461,-0.669787
3462,-0.100105,-0.013888,-0.062392
3463,0.069912,-0.521385,-0.114065
3464,-0.458683,-0.498922,0.428918
3465,-1.111696,-0.279087,1.174541
3466,-1.108902,0.58443,0.225026
3467,0.448913,0.417278,0.897779
3468,0.438304,-0.350958,1.612571
3469,0.262465,-0.476573,1.444747
3470,0.054755,-0.40557,0.900254
3471,0.114559,-0.312931,0.852019
3472,0.07435,-0.225264,0.861935
3473,-0.026306,0.350442,1.073777
3474,-0.025604,0.528607,1.025873
3475,0.114808,0.458274,0.595072
3476,0.124496,0.160205,-0.114092
3477,0.262593,0.058184,0.086879
3478,0.214311,-0.136343,0.602169
3479,0.163647,-0.357347,0.739586
3480,-0.035708,-0.266677,0.359499
3481,-0.439014,-0.25329,-0.095674
3482,-0.479922,-0.312004,-0.329435
3483,-0.055318,-0.094553,0.072626
3484,0.086061,-0.011974,0.393575
3485,0.101232,-0.011362,0.437986
3486,0.004451,0.063077,0.337992
3487,0.000957,0.193295,0.074883
3488,0.264829,0.295307,-0.330173
3489,0.204348,0.434796,-0.327419
3490,-0.013455,0.421587,-0.121089
3491,-0.085763,0.494151,-0.083708
3492,-0.063835,0.571823,-0.307934
3493,0.064587,0.740051,-0.253778
3494,-0.073572,0.816474,-0.14506
3495,-0.139408,0.532878,-0.110505
3496,-0.24711,0.122819,-0.149867
3497,-0.509151,0.251748,0.737619
3498,-0.525986,0.376377,1.202258
3499,-0.998109,0.372372,0.905893
3500,-1.202766,0.021598,0.708317
3501,-1.009278,-0.188356,0.504331
3502,-0.677906,-0.005163,0.256391
3503,-0.212792,-0.21977,0.705156
3504,0.203559,0.071426,1.083373
3505,0.271678,0.059127,0.864732
3506,0.17203,-0.101608,0.91724
3507,0.118796,-0.110613,0.987159
3508,0.071459,-0.140495,0.998464
3509,-0.035659,-0.338667,0.955454
3510,-0.057867,-0.524672,1.071284
3511,-0.078837,-0.554871,1.079331
3512,0.084589,-0.540666,0.900182
3513,0.15933,-0.479943,0.65522
3514,0.272652,-0.340771,0.27435
3515,-0.506308,1.546694,-0.849021
3516,-0.483089,1.532371,-0.874274
3517,-0.596601,0.415665,-0.218647
3518,0.014346,-0.338417,-0.167269
3519,-0.117489,-0.395953,-0.022174
3520,-0.334031,-0.333889,0.107405
3521,-0.968187,0.438122,0.621684
3522,-0.611464,1.515496,-0.341174
3523,0.072713,0.709981,0.75498
3524,0.157817,-0.484706,1.695889
3525,-0.051274,-0.454092,1.050198
3526,0.096775,-0.548948,0.818328
3527,0.175571,-0.524536,0.792019
3528,-0.159343,-0.054937,1.17345
3529,-0.229272,0.550325,1.427818
3530,-0.061515,0.641665,0.954398
3531,0.230228,0.356808,0.481452
3532,0.146006,0.086248,-0.761705
3533,0.34709,0.151377,0.059033
3534,0.306136,0.036825,0.544459
3535,0.12038,-0.137876,0.375931
3536,0.058166,-0.125027,0.311067
3537,-0.115802,-0.127482,0.295436
3538,-0.135194,-0.102538,0.141361
3539,-0.154463,-0.279879,-0.053385
3540,-0.02259,-0.160021,0.224505
3541,-0.023557,0.052144,0.52419
3542,-0.008957,0.25381,0.161364
3543,0.254419,0.265803,-0.289404
3544,0.236431,0.443286,-0.287284
3545,-0.071114,0.343902,-0.185102
3546,-0.089825,0.4007,0.057861
3547,-0.083956,0.461952,-0.030699
3548,0.012001,0.380871,-0.266406
3549,0.061625,0.619346,-0.210063
3550,0.029032,0.753379,-0.125986
3551,0.111756,0.618818,-0.196764
3552,-0.015021,0.259298,-0.164097
3553,-0.350977,0.290703,0.453407
3554,-0.390791,0.385678,1.297555
3555,-0.90857,0.458975,0.977761
3556,-1.283067,0.163047,0.920651
3557,-0.993166,-0.279976,0.841167
