,userAcceleration.x,userAcceleration.y,userAcceleration.z
0,-0.335382,0.370273,0.282583
1,0.039331,0.096858,0.41744
2,0.12543,0.023021,0.479218
3,0.18119,-0.236075,0.474911
4,0.15019,-0.305572,0.464333
5,0.132616,-0.280238,0.553937
6,-0.006919,-0.292627,0.52908
7,-0.182857,-0.340143,0.56074
8,-0.235031,-0.376463,0.608102
9,-0.267753,-0.494787,0.676597
10,-0.204373,-0.519353,0.563407
11,-0.152321,-0.514035,0.474805
12,-0.099145,-0.465998,0.220645
13,-0.115821,-0.426393,0.001196
14,-0.128667,-0.31499,-0.186061
15,-0.377482,0.528495,-0.923678
16,-0.015644,1.510312,-1.022295
17,0.026712,0.113266,-0.272377
18,-0.089176,-0.206218,-0.212237
19,-0.392096,-0.392176,-0.124016
20,-0.702166,0.372717,0.015838
21,-0.744568,1.108472,0.171348
22,-0.229295,0.742499,0.848126
23,0.117867,-0.790688,1.217557
24,0.26816,-1.170845,1.020977
25,0.156584,-0.475403,0.672409
26,0.124057,0.562057,1.005126
27,0.321677,0.764502,0.346527
28,0.368561,0.642889,0.127729
29,0.123523,-0.105883,0.168887
30,-0.138735,-0.202383,0.199088
31,-0.430529,-0.126103,0.095061
32,-0.160381,-0.12832,-0.004137
33,-0.036889,-0.056474,0.039906
34,0.080323,0.021757,0.104225
35,0.386682,0.047371,0.026247
36,0.327322,-0.035157,-0.270654
37,0.09803,-0.060358,-0.082082
38,0.063414,-0.139445,0.019571
39,0.089662,-0.083848,-0.184246
40,0.059081,0.024235,-0.23369
41,-0.037329,0.052689,-0.239514
42,0.016985,0.032781,-0.244775
43,0.440991,0.216396,-0.249231
44,0.438614,0.311351,-0.280933
45,0.170642,0.238874,-0.339097
46,0.133674,0.227475,-0.307408
47,0.189058,0.282751,-0.38191
48,0.157449,0.317679,-0.492028
49,0.050247,0.308893,-0.44265
50,0.121875,0.431991,-0.487269
51,0.462118,0.234432,-0.086569
52,0.464275,0.278902,-0.028958
53,0.334285,0.376776,0.133329
54,-0.178681,0.762974,0.321826
55,-0.296325,0.699876,0.202316
56,-0.348029,0.424853,0.196205
57,-0.422916,0.361502,0.268569
58,-0.077651,0.073922,0.440474
59,-0.098819,0.078954,0.480455
60,0.17244,-0.015872,0.435945
61,0.252139,-0.20691,0.469355
62,0.217578,-0.240521,0.53053
63,0.102957,-0.324846,0.658898
64,-0.104665,-0.388091,0.643292
65,-0.253276,-0.434377,0.712741
66,-0.240146,-0.423647,0.731234
67,-0.219639,-0.533324,0.727604
68,-0.129925,-0.564856,0.533759
69,-0.06582,-0.565871,0.417235
70,-0.060987,-0.445645,0.165975
71,-0.128788,-0.198071,-0.24224
72,-0.288238,0.253387,-0.879701
73,-0.431061,1.177446,-1.110078
74,0.307678,1.578358,-0.77203
75,0.060216,0.100529,-0.172693
76,-0.111671,-0.560411,0.042426
77,-0.371212,-0.708076,-0.208925
78,-0.6376,-0.031006,-0.179642
79,-0.273564,0.900397,0.993322
80,-0.256705,1.379036,0.606375
81,0.048255,-0.115742,1.023508
82,0.089719,-1.038611,0.645539
83,-0.025216,-0.562966,0.776097
84,0.180662,0.16641,0.874
85,0.261214,0.63394,0.384598
86,0.25151,0.38047,0.222408
87,0.119941,0.02615,0.141635
88,-0.189096,-0.105353,0.119308
89,-0.145517,-0.118534,0.055757
90,0.000599,-0.183076,0.090471
91,0.106175,-0.088992,0.131841
92,0.169947,-0.063553,0.047931
93,0.11058,-0.106006,-0.092397
94,0.054765,-0.095169,0.014756
95,0.050918,-0.097475,0.019055
96,0.19772,-0.015264,-0.166597
97,0.158616,0.020639,-0.183952
98,0.005364,0.077519,-0.193031
99,0.001769,0.108962,-0.28221
100,0.254072,0.229374,-0.219794
101,0.343159,0.290919,-0.25874
102,0.353309,0.23413,-0.273444
103,0.434506,0.315478,-0.291795
104,0.33071,0.399612,-0.413546
105,0.217824,0.371257,-0.458842
106,-0.038541,0.258203,-0.494047
107,0.165655,0.423257,-0.428974
108,0.316064,0.490255,-0.290385
109,0.408133,0.10519,-0.013426
110,0.194238,0.299677,0.306193
111,0.018048,0.506907,0.340772
112,-0.34982,0.875373,0.240774
113,-0.246419,0.399738,0.285995
114,-0.314182,0.407129,0.229356
115,-0.120281,0.324164,0.410847
116,0.122376,0.023106,0.473435
117,0.160919,-0.119606,0.494071
118,0.145978,-0.246131,0.505432
119,0.099114,-0.29689,0.596411
120,0.073992,-0.288824,0.634262
121,0.001996,-0.288348,0.685634
122,-0.120626,-0.366352,0.718907
123,-0.214953,-0.495796,0.74839
124,-0.299899,-0.603281,0.655124
125,-0.295348,-0.632902,0.46479
126,-0.24652,-0.612187,0.267562
127,-0.131796,-0.456999,0.095702
128,-0.079596,-0.096787,-0.353225
129,-0.095503,0.168147,-0.663793
130,-0.02773,1.561268,-1.082414
131,0.211103,0.926062,-0.56584
132,-0.077128,-0.219436,-0.208362
133,-0.127602,-0.499987,-0.150458
134,-0.531596,0.062038,-0.193997
135,-0.319532,1.078951,0.758902
136,-0.045383,1.477019,1.067502
137,-0.164226,-0.383343,1.285726
138,-0.21058,-1.344203,0.523111
139,-0.307231,-1.233335,0.42862
140,0.19306,0.572268,0.846096
141,0.369864,1.078466,0.485687
142,0.41911,0.368959,0.015382
143,0.156852,-0.058239,0.058646
144,-0.114562,-0.214839,0.091959
145,-0.159726,-0.189098,0.075693
146,-0.080843,-0.167354,0.086659
147,0.148342,-0.062304,0.016383
148,0.155458,-0.138785,-0.113561
149,-0.003516,-0.132787,-0.044794
150,-0.051327,-0.140887,0.058289
151,0.083275,-0.053192,-0.066384
152,0.204216,0.048309,-0.136458
153,0.205965,0.094504,-0.199183
154,0.003356,0.115622,-0.309023
155,0.074397,0.162504,-0.289839
156,0.293482,0.376278,-0.37953
157,0.414522,0.316755,-0.251881
158,0.448732,0.308892,-0.353272
159,0.320134,0.38279,-0.475747
160,0.038876,0.291867,-0.558053
161,0.060638,0.194641,-0.343443
162,0.2652,0.409971,-0.400212
163,0.394286,0.188101,-0.045999
164,0.243216,0.216407,0.142852
165,-0.16334,0.479041,0.275446
166,-0.410298,0.918049,0.297427
167,-0.310248,0.548496,0.290167
168,-0.346394,0.395957,0.274694
169,-0.482749,0.532189,0.215951
170,-0.221443,0.329934,0.462451
171,-0.062775,0.115313,0.566797
172,0.146531,-0.158575,0.521377
173,0.144201,-0.248273,0.535194
174,0.090466,-0.277587,0.597061
175,-0.000348,-0.299665,0.676108
176,-0.14093,-0.416888,0.660792
177,-0.244666,-0.501071,0.711098
178,-0.292683,-0.608912,0.751102
179,-0.26813,-0.637512,0.69584
180,-0.166794,-0.574299,0.500355
181,-0.046752,-0.428433,0.205638
182,-0.06338,-0.331248,-0.057191
183,-0.136493,-0.065248,-0.557458
184,-0.312787,0.645891,-0.931113
185,0.018805,1.647307,-0.885308
186,-0.001436,0.041571,-0.295753
187,-0.287153,-0.291117,-0.120108
188,-0.539515,-0.032855,-0.312405
189,-0.618826,1.349115,-0.267224
190,0.316857,0.893675,1.257591
191,0.24068,-0.360434,2.226974
192,-0.484466,-1.560371,0.571557
193,-0.301004,-0.736903,0.370328
194,0.284465,0.401617,1.351678
195,0.473754,1.137222,0.759003
196,0.61214,0.769614,-0.043079
197,0.322585,-0.046143,0.006325
198,-0.02638,-0.316255,0.240189
199,-0.323225,-0.087923,0.233914
200,-0.125646,-0.019305,0.059453
201,0.031526,-0.089817,-0.028318
202,0.148706,0.005823,-0.040112
203,0.126887,-0.012736,-0.034578
204,0.017103,-0.166464,0.007482
205,-0.047013,-0.192367,0.033717
206,-0.07693,-0.15493,0.029225
207,0.002822,-0.121475,-0.068558
208,0.122721,0.008255,-0.096447
209,0.165971,0.143514,-0.188207
210,0.164247,0.15475,-0.32845
211,0.181925,0.281368,-0.317144
212,0.309654,0.282012,-0.304339
213,0.394501,0.286126,-0.260386
214,0.474021,0.304391,-0.283304
215,0.248438,0.343789,-0.441271
216,0.156874,0.381623,-0.322958
217,0.15882,0.626411,-0.371951
218,0.176471,0.44878,-0.097251
219,0.054887,0.208947,0.009672
220,-0.113408,0.358247,0.287201
221,-0.34091,0.696481,0.334105
222,-0.327947,0.579334,0.099998
223,-0.395634,0.248321,0.174428
224,-0.464414,0.269922,0.184724
225,-0.379777,0.268927,0.462421
226,-0.04411,0.010054,0.584045
227,0.07627,-0.072809,-0.10792
228,0.119187,-0.210829,0.458245
229,0.066631,-0.348088,0.574456
230,-0.03045,-0.367585,0.620739
231,-0.167889,-0.38748,0.594497
232,-0.261413,-0.44945,0.663966
233,-0.237295,-0.478752,0.673027
234,-0.217142,-0.487341,0.615544
235,-0.112837,-0.519172,0.460696
236,0.056187,-0.484207,0.287369
237,0.022554,-0.29996,-0.063375
238,-0.255732,0.008682,-0.897416
239,-0.30767,0.573645,-1.036371
240,0.052943,1.251061,-0.825331
241,0.204976,0.732069,-0.345754
242,0.001154,0.119624,0.043113
243,-0.309204,-0.417572,-0.137966
244,-0.809337,-0.034795,-0.421495
245,-0.684617,0.942729,0.188564
246,-0.116788,1.003219,1.522943
247,-0.010127,-0.573236,1.199138
248,-0.137278,-1.112906,0.675097
249,0.038567,-0.562131,0.636579
250,0.43407,0.189705,1.173591
251,0.368732,0.903527,0.496357
252,0.306231,0.720502,0.214988
253,0.119849,0.023429,0.042513
254,-0.194509,-0.184656,0.234351
255,-0.429843,-0.117796,0.137144
256,-0.319702,-0.115314,0.021393
257,0.039334,-0.039595,0.092686
258,0.291088,0.047822,0.163909
259,0.364529,0.003189,0.115173
260,-0.091101,-0.203276,0.030495
261,-0.18528,-0.190921,0.016939
262,-0.197812,-0.152136,-0.052799
263,0.044212,0.047807,-0.130586
264,0.08311,0.108849,-0.161931
265,0.09186,0.150632,-0.259594
266,0.414266,0.300745,-0.288549
267,0.400441,0.36357,-0.412201
268,0.237919,0.306981,-0.256823
269,0.292473,0.3145,-0.328133
270,0.309404,0.373012,-0.442128
271,0.160457,0.37914,-0.401883
272,0.184092,0.463972,-0.384434
273,0.314017,0.497089,-0.256515
274,0.19658,0.194072,-0.116382
275,0.072656,0.209586,0.079105
276,-0.100286,0.501191,0.394674
277,-0.184093,0.746881,0.161052
278,-0.19048,0.548255,0.289873
279,-0.389783,0.412699,0.266044
280,-0.572605,0.252512,0.500722
281,-0.396126,0.065055,0.522371
282,-0.076798,-0.083093,0.522625
283,0.214973,-0.389214,0.45489
284,0.202051,-0.41369,0.477088
285,0.060476,-0.382511,0.581325
286,-0.13859,-0.403865,0.57461
287,-0.285962,-0.414596,0.634793
288,-0.314731,-0.44188,0.729014
289,-0.291629,-0.507481,0.730098
290,-0.184584,-0.581372,0.637692
291,-0.04469,-0.573255,0.48534
292,0.059719,-0.406495,0.240594
293,-0.11994,-0.146438,-0.265289
294,-0.495165,0.362277,-1.1572
295,-0.418085,1.754064,-1.162058
296,0.475037,1.4583,-0.759113
297,-0.014572,-0.055884,-0.074233
298,-0.341833,-0.778167,0.258285
299,-0.577268,-0.698292,-0.251496
300,-0.478681,-0.004658,0.170747
301,-0.052051,0.798119,1.722588
302,-0.33629,1.421354,0.315073
303,-0.096147,0.817878,0.520523
304,0.038711,-0.748673,0.748346
305,0.070227,-0.219518,0.861233
306,0.102391,0.085221,0.654014
307,0.209498,0.511494,0.44946
308,0.163458,0.233061,0.187422
309,0.110759,0.096411,0.037875
310,0.066382,0.005006,-0.045002
311,-0.0932,-0.164042,0.241175
312,-0.012862,-0.186828,0.294486
313,0.052481,-0.204821,0.269456
314,-0.025457,-0.087818,-0.163602
315,-0.068983,-0.098055,-0.058409
316,-0.07614,-0.1161,0.048416
317,0.213781,-0.02001,-0.071915
318,0.215783,0.060711,-0.128182
319,-0.003434,0.087981,-0.221747
320,-0.070721,0.059486,-0.297561
321,0.064409,0.169307,-0.291478
322,0.423912,0.360903,-0.287225
323,0.418458,0.292735,-0.234874
324,0.367129,0.281626,-0.250146
325,0.19823,0.35414,-0.396787
326,0.113837,0.339122,-0.438204
327,0.078115,0.348154,-0.324173
328,0.314371,0.439773,-0.308693
329,0.457857,0.042673,-0.034837
330,0.403253,0.076719,0.02544
331,0.080107,0.394859,0.31983
332,-0.271861,0.869569,0.286964
333,-0.246371,0.677288,0.338571
334,-0.329296,0.410123,0.248217
335,-0.38232,0.427445,0.32519
336,-0.185273,0.171947,0.529874
337,0.116544,0.003861,0.540298
338,0.278094,-0.110211,0.476296
339,0.244908,-0.28973,0.484601
340,0.166257,-0.308039,0.633273
341,0.026696,-0.277761,0.696301
342,-0.161041,-0.281232,0.706999
343,-0.326752,-0.347822,0.755037
344,-0.375125,-0.508776,0.803196
345,-0.359551,-0.565493,0.766077
346,-0.235001,-0.603422,0.495451
347,-0.12737,-0.51702,0.293253
348,-0.023051,-0.37397,0.025047
349,-0.034276,-0.139535,-0.418166
350,-0.091843,0.460229,-0.905139
351,-0.177894,1.71563,-0.928929
352,0.379298,1.166475,-0.440075
353,-0.137088,-0.579673,-0.111076
354,-0.385978,-0.611282,-0.139943
355,-0.805871,0.144292,-0.178788
356,-0.460661,0.970777,0.827828
357,-0.135572,0.949703,0.845088
358,0.116425,-0.655248,1.227801
359,0.005151,-0.774154,0.708467
360,0.152931,-0.454478,0.949471
361,0.172655,0.377055,0.873852
362,0.385004,0.897203,0.440677
363,0.406267,0.39712,0.278323
364,0.006279,-0.090739,0.19539
365,-0.340386,-0.138881,0.101211
366,-0.321825,-0.160612,0.116718
367,-0.118095,-0.182666,0.18352
368,-0.016938,-0.128247,0.195279
369,0.168254,-0.094432,0.191951
370,0.131941,-0.073717,-0.11022
371,0.018964,-0.070606,-0.089804
372,0.010189,-0.143147,0.063551
373,0.3145,0.047573,-0.08688
374,0.326673,0.097547,-0.151222
375,0.017752,0.103668,-0.255567
376,0.000959,0.125708,-0.334907
377,0.214779,0.354348,-0.344375
378,0.339426,0.349824,-0.292494
379,0.406043,0.251052,-0.266854
380,0.424985,0.332514,-0.382727
381,0.264311,0.395441,-0.384337
382,0.16014,0.454593,-0.359254
383,0.133846,0.495616,-0.29607
384,0.113394,0.269721,-0.123691
385,0.037204,0.150101,0.068027
386,-0.015271,0.336636,0.302723
387,-0.119098,0.525784,0.342918
388,-0.250566,0.559312,0.184153
389,-0.160973,0.217915,0.23069
390,-0.297286,0.25751,0.29866
391,-0.218822,0.277856,0.438222
392,0.147611,-0.051977,0.52201
393,0.151156,-0.123699,0.46745
394,0.160991,-0.133795,0.467216
395,0.109497,-0.215767,0.64325
396,0.072271,-0.242069,0.692708
397,-0.007806,-0.280524,0.716772
398,-0.292772,-0.418875,0.684129
399,-0.293203,-0.46138,0.715191
400,-0.267926,-0.517285,0.734195
401,-0.13463,-0.551456,0.516884
402,-0.077359,-0.567928,0.421447
403,-0.003172,-0.455135,0.216967
404,-0.151013,-0.156721,-0.242482
405,-0.508495,0.426185,-1.150236
406,-0.399677,1.92474,-1.165209
407,0.510948,1.37319,-0.6091
408,0.07245,-0.340314,-0.095476
409,-0.4163,-0.907238,0.018493
410,-0.613867,-0.573653,-0.101906
411,-0.254234,0.705236,1.054289
412,-0.079731,1.591537,0.568537
413,0.038886,0.298016,0.959169
414,0.069911,-1.087227,0.818664
415,-0.119927,-0.820884,0.726742
416,0.015579,-0.183763,0.898188
417,0.17735,0.655979,0.603835
418,0.254524,0.690037,0.439173
419,0.258095,0.254991,0.153999
420,0.094949,-0.05488,0.108778
421,-0.13771,-0.147194,0.192351
422,-0.16863,-0.139059,0.213727
423,-0.011023,-0.096145,0.155325
424,0.080385,-0.111305,0.148133
425,0.089703,-0.154583,0.024366
426,-0.025266,-0.143705,-0.000581
427,-0.030925,-0.208557,0.039731
428,0.252484,-0.019852,-0.022174
429,0.298844,0.058234,-0.075226
430,0.227681,0.091126,-0.20287
431,-0.00553,0.097204,-0.364997
432,0.056545,0.214841,-0.348093
433,0.170632,0.313913,-0.367707
434,0.512699,0.27898,-0.228172
435,0.57811,0.275145,-0.293786
436,0.554282,0.346028,-0.363049
437,0.033014,0.343937,-0.498984
438,0.038974,0.359896,-0.396124
439,0.072271,0.430931,-0.455167
440,0.187491,0.032719,-0.125606
441,0.168128,0.131213,0.119925
442,0.157351,0.264948,0.342146
443,-0.286051,0.945105,0.346506
444,-0.328706,0.700615,0.349673
445,-0.530811,0.454761,0.233126
446,-0.604013,0.381662,0.422553
447,-0.415044,0.109121,0.500822
448,0.019695,-0.132331,0.57632
449,0.086491,-0.351208,0.480115
450,0.113347,-0.427643,0.484916
451,0.063836,-0.418834,0.580589
452,-0.105801,-0.404786,0.626115
453,-0.175802,-0.457399,0.633778
454,-0.262452,-0.520289,0.716214
455,-0.294319,-0.590344,0.722086
456,-0.209442,-0.575295,0.610377
457,-0.013574,-0.541872,0.425601
458,0.059565,-0.382353,0.139386
459,-0.162309,-0.114956,-0.490296
460,-0.497913,0.651466,-1.275815
461,-0.096678,2.02343,-1.102588
462,0.399069,0.805863,-0.494735
463,-0.160121,-0.257499,0.094267
464,-0.648001,-0.452338,0.00789
465,-0.874582,0.469951,-0.112173
466,-0.241936,1.372748,0.488117
467,0.078852,0.495567,1.460995
468,-0.253029,-1.296377,1.28338
469,-0.000583,-0.850574,0.723806
470,0.426752,0.214876,1.411196
471,0.384978,0.784461,1.098417
472,0.526252,0.810241,0.07942
473,0.212901,0.125892,0.042975
474,-0.175626,-0.17696,0.286313
475,-0.436375,-0.205804,0.240597
476,-0.345297,-0.257792,0.116432
477,-0.123413,-0.15171,0.179194
478,0.113581,-0.013563,0.341653
479,0.297888,-0.048478,0.11154
480,0.128607,-0.11407,-0.125473
481,-0.113016,-0.196633,0.007835
482,-0.032838,-0.132639,-0.021727
483,0.148616,0.033534,-0.198261
484,0.173296,0.126201,-0.224536
485,0.051985,0.090021,-0.295497
486,0.240148,0.210157,-0.29116
487,0.439912,0.386588,-0.377136
488,0.356567,0.303608,-0.285388
489,0.281175,0.302951,-0.358234
490,0.179569,0.421652,-0.489807
491,-0.042229,0.34594,-0.628153
492,-0.03672,0.229691,-0.410366
493,0.090896,0.323744,-0.394104
494,0.41809,0.129968,0.019003
495,0.35982,0.285743,0.258827
496,0.153547,0.494065,0.320092
497,-0.389132,0.724011,0.285256
498,-0.413502,0.723678,0.335118
499,-0.431565,0.265732,0.17041
500,-0.418462,0.260959,0.380671
501,-0.209489,0.044336,0.471466
502,-0.016156,-0.091107,0.52499
503,0.178641,-0.279753,0.500772
504,0.140678,-0.270627,0.549515
505,0.056321,-0.253207,0.619125
506,-0.043509,-0.244838,0.683412
507,-0.166669,-0.381263,0.682519
508,-0.283014,-0.4603,0.705835
509,-0.298004,-0.553273,0.732194
510,-0.299161,-0.598434,0.693459
511,-0.207627,-0.570186,0.539111
512,-0.044692,-0.525003,0.324575
513,-0.086099,-0.264802,-0.02715
514,-0.565578,0.600608,-1.215084
515,-0.499911,1.401,-1.303114
516,0.487005,2.208386,-0.90416
517,-0.182469,-0.60059,-0.009345
518,-0.307038,-0.974643,0.237425
519,-0.725826,-0.280716,-0.170838
520,-0.223578,0.849231,0.960955
521,0.33721,1.543687,1.220314
522,0.003643,1.292433,0.583716
523,-0.378419,-1.08446,0.581139
524,-0.286325,-0.844698,0.982942
525,-0.003934,-0.153766,1.186553
526,0.201471,0.720559,0.809478
527,0.411664,0.924026,0.49083
528,0.34761,0.297921,0.078056
529,0.048096,-0.04431,0.149878
530,-0.159421,-0.150327,0.220478
531,-0.14877,-0.152784,0.156829
532,-0.104126,-0.177109,0.212605
533,-0.005455,-0.156038,0.15947
534,0.015628,-0.20017,-0.066161
535,-0.093777,-0.217976,0.07649
536,0.027456,-0.121322,0.097941
537,0.139434,-0.037849,-0.022488
538,0.213214,0.02961,-0.108869
539,-0.006784,0.065718,-0.367151
540,-0.049916,0.131012,-0.302645
541,0.018409,0.225982,-0.214163
542,0.40095,0.359529,-0.268993
543,0.443433,0.311836,-0.237454
544,0.475779,0.306936,-0.216363
545,0.165959,0.39871,-0.355654
546,0.103667,0.43042,-0.293091
547,0.075382,0.492586,-0.322837
548,0.214609,0.225884,-0.1419
549,0.179709,0.096648,-0.089027
550,0.082248,0.044608,0.016493
551,-0.356108,0.57398,0.325507
552,-0.363184,0.687791,0.339471
553,-0.319046,0.631027,0.302352
554,-0.371943,0.295809,0.260026
555,-0.380111,0.357576,0.408527
556,-0.25417,0.226191,0.471163
557,0.065653,-0.008596,0.503771
558,0.266639,-0.136723,0.474711
559,0.141081,-0.291132,0.526587
560,-0.007568,-0.334789,0.614481
561,-0.057535,-0.324412,0.632036
562,-0.279659,-0.358081,0.669262
563,-0.278449,-0.391723,0.771457
564,-0.257273,-0.407801,0.77283
565,-0.231131,-0.483399,0.662699
566,-0.148155,-0.501609,0.511407
567,-0.090852,-0.504871,0.421776
568,-0.119024,-0.29471,-0.043656
569,-0.291298,-0.132656,-0.391511
570,-0.596049,1.153519,-1.082768
571,0.215091,1.965798,-0.783056
572,0.159022,0.311163,-0.144765
573,-0.059765,-0.20037,0.074296
574,-0.317676,-1.025141,-0.000574
575,-0.478815,-0.604563,0.223499
576,-0.386666,-0.171197,1.325377
577,-0.561852,0.804178,1.229532
578,-0.219191,2.664253,-1.320104
579,0.339951,-0.061588,1.628271
580,0.286309,-1.016936,0.984538
581,0.088713,-0.677178,0.57757
582,0.033578,-0.344671,0.564556
583,-0.008914,0.534056,0.677361
584,0.072941,0.466967,0.291942
585,0.177484,0.120775,-0.056764
586,-0.063898,-0.12848,-0.009526
587,-0.160843,-0.192512,0.311105
588,0.012083,-0.272656,0.374114
589,0.099967,-0.266856,0.119239
590,0.104338,-0.057112,-0.185191
591,0.045756,-0.040892,-0.042386
592,0.027003,-0.032564,0.041871
593,0.089891,-0.078756,-0.122835
594,0.087,-0.026056,-0.126252
595,0.041005,0.057742,-0.151212
596,0.021994,0.079028,-0.229098
597,0.153278,0.16095,-0.227451
598,0.282923,0.243851,-0.28596
599,0.450495,0.287553,-0.209849
600,0.443818,0.31697,-0.286197
601,0.374753,0.361614,-0.397899
602,0.00112,0.221797,-0.417737
603,0.220937,0.327989,-0.427861
604,0.423642,0.246204,-0.207494
605,0.442303,0.115847,0.049178
606,0.351049,0.216892,0.319828
607,-0.280258,0.984187,0.389788
608,-0.455608,0.839111,0.233969
609,-0.306173,0.283399,0.283018
610,-0.399411,0.351405,0.278806
611,-0.341043,0.360821,0.47589
612,-0.013475,0.003098,0.477978
613,0.073626,-0.119777,0.55645
614,0.042945,-0.178957,0.594468
615,0.005793,-0.246763,0.633886
616,-0.022985,-0.284724,0.697607
617,-0.087008,-0.35154,0.7038
618,-0.204597,-0.475506,0.736851
619,-0.307841,-0.59069,0.78305
620,-0.333386,-0.650106,0.751194
621,-0.30406,-0.59578,0.606234
622,-0.07172,-0.576959,0.419749
623,-0.001719,-0.39768,0.16286
624,-0.209547,-0.035336,-0.518109
625,-0.523788,0.942114,-1.300884
626,0.130435,2.307051,-0.991616
627,0.324557,0.588327,-0.303648
628,-0.12508,-0.566688,0.227097
629,-0.375312,-0.871334,-0.163121
630,-0.342563,-0.29947,0.075484
631,-0.055015,0.043062,0.743027
632,-0.228182,1.702675,0.401423
633,-0.307152,0.550185,1.073655
634,-0.059636,-0.943649,0.648819
635,-0.067713,-0.507446,1.002601
636,-0.055673,-0.124185,0.923382
637,0.058014,0.352529,0.732784
638,0.154213,0.346764,0.23482
639,0.0868,0.146744,0.084665
640,0.036058,0.003258,0.019734
641,-0.157812,-0.21504,0.335002
642,-0.051879,-0.197043,0.315097
643,0.143508,-0.131333,0.226841
644,0.216209,-0.10208,-0.017643
645,0.094412,-0.071742,-0.080592
646,-0.031208,-0.094752,0.030194
647,0.044335,-0.126473,0.075843
648,0.242983,0.013705,-0.049844
649,0.163186,0.073708,-0.145654
650,0.012503,0.018641,-0.256632
651,0.007569,0.044636,-0.280354
652,0.248994,0.346576,-0.313569
653,0.413067,0.253726,-0.193525
654,0.48003,0.283036,-0.235304
655,0.356006,0.379027,-0.348148
656,0.06995,0.335399,-0.492648
657,-0.029508,0.261075,-0.400008
658,0.058408,0.412264,-0.506046
659,0.262424,0.106409,-0.120528
660,0.364978,0.087125,0.230006
661,0.342154,0.394335,0.468539
662,-0.04176,0.87724,0.338071
663,-0.205087,0.838556,0.336204
664,-0.353521,0.487207,0.270118
665,-0.618509,0.532902,0.388356
666,-0.618242,0.228226,0.509993
667,-0.089615,-0.075909,0.502991
668,0.149482,-0.134814,0.619857
669,0.246936,-0.301086,0.518675
670,0.179189,-0.348961,0.575928
671,0.04197,-0.304324,0.716972
672,0.014355,-0.309388,0.732307
673,-0.203855,-0.409813,0.721746
674,-0.318103,-0.470367,0.766915
675,-0.355358,-0.524941,0.735767
676,-0.245469,-0.548368,0.623368
677,-0.088582,-0.530406,0.373636
678,0.009279,-0.29991,0.1487
679,-0.106828,0.090203,-0.415908
680,-0.330277,0.772975,-1.063119
681,0.012458,2.109573,-1.176618
682,0.33634,0.612268,-0.443993
683,-0.058184,-0.52447,0.120277
684,-0.501044,-0.569501,-0.033414
685,-0.634621,0.354372,-0.06844
686,0.231371,1.320668,1.276395
687,0.094017,0.922078,1.199132
688,-0.347107,-0.701321,1.167712
689,-0.489004,-1.064599,0.271387
690,-0.299417,-0.877957,0.622471
691,0.295948,0.230856,1.054954
692,0.349474,0.883085,0.505216
693,0.358013,0.75168,0.324752
694,0.126959,0.085159,0.201138
695,-0.090579,-0.066715,0.195939
696,-0.140149,-0.096535,0.180804
697,-0.059918,-0.152105,0.096053
698,0.056945,-0.028696,0.117812
699,0.065989,-0.029137,0.08814
700,0.191177,-0.178044,0.004366
701,0.049873,-0.161515,0.067442
702,0.03161,-0.13903,0.063849
703,0.145417,-0.026445,-0.01942
704,0.036677,0.136659,-0.149856
705,-0.046985,0.134176,-0.25172
706,-0.099756,0.074371,-0.307255
707,0.335507,0.34819,-0.317208
708,0.440992,0.364939,-0.30826
709,0.580427,0.219887,-0.212537
710,0.404854,0.385586,-0.436936
711,0.117041,0.386133,-0.275777
712,0.061925,0.548422,-0.394945
713,0.078061,0.508454,-0.220309
714,-0.0161,0.10361,-0.082564
715,-0.039394,0.078677,0.270936
716,-0.072416,0.508034,0.366002
717,-0.21821,0.831719,0.25747
718,-0.26016,0.410853,0.370775
719,-0.329107,0.221078,0.222856
720,-0.416888,0.414793,0.336371
721,-0.244078,0.159908,0.569487
722,0.041183,-0.095723,0.588549
723,0.132473,-0.161093,0.514974
724,0.091927,-0.243802,0.53991
725,0.053748,-0.27098,0.646056
726,-0.050111,-0.300687,0.667938
727,-0.208491,-0.39433,0.68212
728,-0.310914,-0.463273,0.704239
729,-0.296123,-0.545521,0.752116
730,-0.272173,-0.551707,0.69053
731,-0.183383,-0.507708,0.555022
732,0.010741,-0.491651,0.356596
733,-0.015681,-0.410043,0.224723
734,-0.530621,0.580389,-1.197344
735,-0.530152,0.574675,-1.209569
736,0.459336,2.063526,-0.791332
737,-0.051354,-0.157334,0.123758
738,-0.241014,-0.554591,0.357242
739,-0.450486,-0.734061,-0.079549
740,-0.360962,-0.346656,0.198926
741,0.046268,0.272657,1.719157
742,-0.265553,1.513177,0.466145
743,-0.278398,0.804933,0.64726
744,-0.072155,-0.751826,0.789976
745,-0.131001,-0.802531,0.907724
746,-0.141332,-0.305115,0.813426
747,0.074333,0.429973,0.56743
748,0.191286,0.671213,0.511671
749,0.218906,0.297032,0.280656
750,0.173306,-0.016561,0.1446
751,-0.051516,-0.150917,0.170415
752,-0.111577,-0.173293,0.18441
753,-0.061028,-0.124217,0.196843
754,0.062371,-0.142378,-0.005372
755,0.040979,-0.17244,0.06075
756,0.026699,-0.175704,0.213072
757,0.105212,-0.080019,0.060371
758,0.146309,0.034038,-0.085143
759,0.078387,0.065415,-0.15485
760,-0.028356,0.002009,-0.263854
761,0.021912,0.14215,-0.243948
762,0.129409,0.272243,-0.246356
763,0.455284,0.282563,-0.191501
764,0.544959,0.268141,-0.191287
765,0.530424,0.334092,-0.291169
766,0.094894,0.348005,-0.382211
767,-0.027347,0.467301,-0.384796
768,0.019954,0.496344,-0.42522
769,0.16451,0.063298,-0.172988
770,0.11744,0.009945,-0.042443
771,0.0297,0.295523,0.323167
772,-0.191827,0.778976,0.365936
773,-0.255346,0.735688,0.235696
774,-0.30927,0.426405,0.322383
775,-0.466705,0.404674,0.362153
776,-0.507427,0.304588,0.470538
777,-0.161779,-0.009561,0.509483
778,0.10152,-0.139835,0.499633
779,0.140954,-0.237252,0.55262
780,0.11155,-0.244369,0.617559
781,-0.096634,-0.285415,0.707904
782,-0.219772,-0.368707,0.720133
783,-0.268093,-0.401277,0.737556
784,-0.263657,-0.487934,0.740797
785,-0.237113,-0.588832,0.712624
786,-0.176647,-0.646541,0.610348
787,-0.111589,-0.619303,0.45118
788,-0.025744,-0.352597,0.184107
789,-0.231103,0.116039,-0.600254
790,-0.481807,1.059699,-1.21612
791,0.116907,2.319596,-1.103912
792,0.359244,0.560803,-0.297973
793,-0.170003,-0.398937,0.340368
794,-0.759879,-0.36878,0.035353
795,-0.738739,0.417079,-0.22133
796,0.09193,0.916971,0.787239
797,-0.205878,-0.558937,1.507354
798,-0.283197,-0.918381,1.101714
799,-0.025438,-0.410487,0.775226
800,0.28277,0.378724,1.046933
801,0.299516,0.745252,0.537598
802,0.348083,0.377696,0.273949
803,0.161921,0.105458,0.326377
804,-0.099007,0.006803,0.312043
805,-0.362152,-0.082951,0.185895
806,-0.252193,-0.128099,0.155883
807,-0.100417,-0.090945,0.192497
808,0.041607,-0.131891,0.266195
809,0.171404,-0.136271,0.155878
810,0.168411,-0.153455,0.055044
811,0.031999,-0.141719,0.079594
812,-0.014609,-0.126359,0.040774
813,0.088275,-0.024204,-0.112327
814,0.086281,0.141234,-0.236295
815,-0.04389,0.152828,-0.238652
816,0.077499,0.221277,-0.2608
817,0.375998,0.399941,-0.269238
818,0.509083,0.316591,-0.256237
819,0.464894,0.239038,-0.225399
820,0.251626,0.322013,-0.452716
821,0.03935,0.406921,-0.313096
822,0.023074,0.53874,-0.336938
823,0.268705,0.407124,-0.140685
824,0.320145,0.139154,0.013253
825,0.301061,0.133549,0.07166
826,-0.086401,0.527085,0.312222
827,-0.30734,0.894633,0.226216
828,-0.218092,0.456829,0.392214
829,-0.38984,0.283849,0.371541
830,-0.39873,0.308465,0.481541
831,-0.193603,-0.001089,0.528142
832,0.059453,-0.124189,0.55071
833,0.185775,-0.233995,0.525024
834,0.138547,-0.207784,0.611958
835,0.06954,-0.171849,0.735684
836,-0.193222,-0.292911,0.708111
837,-0.24999,-0.324204,0.727443
838,-0.29243,-0.381853,0.735765
839,-0.249211,-0.566485,0.767624
840,-0.261468,-0.583583,0.749362
841,-0.193731,-0.616185,0.64899
842,0.019608,-0.303427,0.170946
843,-0.044244,-0.102685,-0.177881
844,-0.436408,1.019755,-1.228321
845,-0.434406,1.729691,-1.274568
846,0.471433,1.366685,-0.64033
847,-0.013703,-0.557524,0.263701
848,-0.347235,-0.497523,-0.121215
849,-0.437838,0.2861,0.542674
850,-0.240383,0.792957,1.450135
851,-0.693514,1.002632,0.21152
852,-0.498724,0.163807,0.66352
853,-0.044824,-0.798526,0.899788
854,0.254634,-0.27851,1.192772
855,0.266324,0.09977,1.048035
856,0.365745,0.819365,0.490686
857,0.241427,0.286047,0.324338
858,0.02947,0.02988,0.248606
859,-0.176625,-0.172108,0.158087
860,-0.30998,-0.193704,0.113407
861,-0.231493,-0.185634,0.242688
862,0.002661,-0.199906,0.326137
863,0.087061,-0.202436,0.160705
864,0.094417,-0.11951,-0.039248
865,-0.039806,-0.112138,0.110155
866,0.061692,-0.079283,0.115291
867,0.273861,0.069359,-0.044748
868,0.314675,0.137838,-0.199284
869,0.14755,0.079245,-0.276345
870,0.095028,0.134589,-0.27818
871,0.271449,0.381352,-0.312577
872,0.453972,0.302515,-0.164753
873,0.574314,0.280236,-0.288913
874,0.351061,0.337788,-0.312813
875,0.086278,0.329812,-0.324543
876,-0.008372,0.445753,-0.378543
877,0.101063,0.4414,-0.121055
878,0.144668,0.156033,-0.03369
879,0.076443,0.226507,0.228486
880,-0.123212,0.615175,0.466245
881,-0.208128,0.769509,0.344503
882,-0.19072,0.361861,0.323346
883,-0.37465,0.269222,0.254277
884,-0.430837,0.336907,0.462565
885,-0.184463,0.025398,0.555025
886,0.053293,-0.057863,0.580686
887,0.130664,-0.230886,0.502147
888,0.064362,-0.234306,0.595428
889,-0.036723,-0.257342,0.682923
890,-0.154697,-0.306537,0.698163
891,-0.269484,-0.387154,0.731931
892,-0.300097,-0.476377,0.775363
893,-0.285246,-0.530058,0.750655
894,-0.215105,-0.513616,0.600172
895,-0.044916,-0.490953,0.446336
896,0.005467,-0.398971,0.150964
897,-0.083505,-0.268644,-0.108464
898,-0.399571,0.634915,-1.059785
899,0.002244,1.924112,-1.035959
900,0.512972,1.693278,-0.805431
901,-0.078607,-0.3304,0.137656
902,-0.530396,-0.412225,-0.157929
903,-0.603044,0.549117,0.028751
904,-0.138352,1.141529,1.401379
905,-0.319596,0.452054,1.10296
906,-0.298431,-0.987104,0.925764
907,-0.241878,-0.972943,0.783278
908,0.265305,-0.287587,1.190689
909,0.487564,0.944501,0.829077
910,0.618775,0.918479,0.530777
911,0.169394,0.017154,0.182202
912,-0.026473,-0.103848,0.159365
913,-0.234325,-0.218044,0.122864
914,-0.298824,-0.221593,0.255693
915,-0.28748,-0.224719,0.221418
916,0.045368,-0.102732,0.233073
917,0.111823,-0.123384,0.009752
918,0.015848,-0.128906,0.013886
919,-0.084523,-0.150466,0.167633
920,0.08599,-0.082331,0.075777
921,0.255009,0.062707,-0.029891
922,0.145639,0.086818,-0.17151
923,-0.04905,0.032227,-0.269404
924,0.093119,0.227573,-0.225848
925,0.326804,0.378436,-0.290342
926,0.422763,0.256153,-0.2319
927,0.536808,0.289882,-0.308483
928,0.363346,0.393351,-0.38753
929,0.180333,0.419166,-0.281285
930,0.188133,0.602581,-0.41545
931,0.237179,0.363466,-0.051074
932,0.036002,0.073934,-0.00512
933,-0.128305,0.24134,0.352784
934,-0.313688,0.919004,0.359397
935,-0.228633,0.519714,0.332135
936,-0.33307,0.3233,0.264099
937,-0.471108,0.433856,0.399972
938,-0.313062,0.183132,0.566845
939,-0.017834,-0.026722,0.63646
940,0.146236,-0.159775,0.49943
941,0.12962,-0.304702,0.512586
942,0.011061,-0.349109,0.689756
943,-0.081418,-0.360159,0.729063
944,-0.177985,-0.372741,0.757897
945,-0.272356,-0.428086,0.781821
946,-0.297358,-0.482538,0.791325
947,-0.292077,-0.555025,0.684838
948,-0.174732,-0.558038,0.581263
949,-0.019441,-0.41359,0.462482
950,-0.145644,-0.214591,0.004649
951,-0.46109,0.449364,-1.087584
952,-0.371299,1.756193,-1.409518
953,0.504932,1.347614,-0.529812
954,0.141831,-0.072317,-0.015182
955,-0.231764,-0.606473,0.21263
956,-0.517822,-0.376458,0.036113
957,-0.449563,0.118711,0.917376
958,-0.393998,0.389346,1.406143
959,0.144882,0.355476,1.086545
960,0.236797,-0.531177,1.333056
961,0.132417,-0.800094,0.954461
962,0.078675,-0.017408,0.838649
963,0.067022,-0.038196,0.779699
964,0.218826,0.683076,0.516219
965,0.138469,0.138139,0.185767
966,0.019066,-0.026525,0.14043
967,-0.272529,-0.152086,0.203279
968,-0.262249,-0.168723,0.319233
969,-0.1675,-0.189159,0.28972
970,-0.076841,-0.164744,0.211254
971,0.03846,-0.119292,0.141273
972,0.02733,-0.135564,0.149563
973,0.042432,-0.171068,0.159756
974,0.153345,-0.111496,0.021386
975,0.191631,-0.011012,-0.076572
976,0.141121,0.066259,-0.147433
977,-0.006817,0.11925,-0.263097
978,0.095695,0.220296,-0.278924
979,0.462142,0.390105,-0.331231
980,0.38491,0.322012,-0.252837
981,0.334608,0.336596,-0.384868
982,0.155039,0.360715,-0.566532
983,0.05417,0.356834,-0.349279
984,0.108544,0.41612,-0.29533
985,0.348038,0.191524,-0.013451
986,0.282007,0.239647,0.171411
987,-0.062938,0.573599,0.467296
988,-0.412848,1.044473,0.365437
989,-0.367782,0.585995,0.360377
990,-0.318827,0.338083,0.328489
991,-0.444754,0.391419,0.384554
992,-0.390299,0.130671,0.505776
993,-0.110482,-0.107346,0.596339
994,0.058371,-0.167176,0.599163
995,0.15295,-0.258936,0.578594
996,0.145288,-0.253388,0.701307
997,0.032117,-0.290434,0.798798
998,-0.129375,-0.362544,0.74454
999,-0.199952,-0.406696,0.748013
1000,-0.314515,-0.478336,0.842885
1001,-0.327575,-0.547125,0.802114
1002,-0.290192,-0.574093,0.723689
1003,-0.066279,-0.501171,0.474181
1004,0.021254,-0.217536,0.068401
1005,-0.335915,0.313511,-0.788122
1006,-0.523366,1.354743,-1.233213
1007,0.447796,2.037688,-0.910266
1008,0.174649,0.180397,-0.220579
1009,-0.153972,-0.561833,0.322523
1010,-0.549352,-0.469192,-0.151634
1011,-0.779293,0.371835,0.076732
1012,-0.534752,0.822864,0.579377
1013,0.001952,-0.282433,1.273674
1014,-0.017151,-0.775466,1.022544
1015,-0.161804,-0.856882,0.553853
1016,0.230213,0.138285,1.170345
1017,0.21765,0.453038,0.850837
1018,0.239575,0.68001,0.614722
1019,0.101875,0.200617,0.285682
1020,-0.010832,0.071548,0.276338
1021,-0.150975,-0.04644,0.216255
1022,-0.151519,-0.151063,0.225851
1023,0.072149,-0.126138,0.39624
1024,0.257898,-0.091835,0.328971
1025,0.230583,-0.151534,0.028586
1026,0.112175,-0.138034,-0.079252
1027,-0.132022,-0.145564,0.164003
1028,0.060879,-0.05976,0.044374
1029,0.141779,0.030288,-0.068393
1030,0.028424,0.089043,-0.281585
1031,-0.075367,0.097034,-0.280301
1032,0.063782,0.193439,-0.234203
1033,0.488641,0.359011,-0.234436
1034,0.485293,0.276958,-0.178407
1035,0.464322,0.300669,-0.230319
1036,0.136244,0.352593,-0.398347
1037,-0.005062,0.261537,-0.335049
1038,0.168491,0.385308,-0.375313
1039,0.322905,0.180759,-0.05012
1040,0.226064,0.077431,0.035371
1041,0.077402,0.281089,0.47895
1042,-0.229072,0.780789,0.574104
1043,-0.321635,0.903521,0.324654
1044,-0.273342,0.461701,0.357738
1045,-0.465336,0.486599,0.315664
1046,-0.572504,0.524998,0.56731
1047,-0.448158,0.31506,0.622201
1048,-0.028834,-0.096471,0.602573
1049,0.178287,-0.297209,0.546481
1050,0.230533,-0.339272,0.602732
1051,0.033169,-0.367729,0.750786
1052,-0.079647,-0.348108,0.794283
1053,-0.134709,-0.361197,0.807151
1054,-0.339412,-0.445645,0.834748
1055,-0.395983,-0.509849,0.82129
1056,-0.347633,-0.576048,0.683995
1057,-0.200147,-0.581695,0.477284
1058,0.00109,-0.205734,0.023844
1059,-0.105427,0.021179,-0.333086
1060,-0.329397,0.303105,-0.820832
1061,-0.160091,2.194782,-1.141683
1062,0.443086,1.008555,-0.467365
1063,0.038295,-0.3647,0.155585
1064,-0.26588,-0.74152,0.146466
1065,-0.620895,-0.241423,-0.090567
1066,-0.266323,0.351057,0.902505
1067,-0.149647,0.902859,1.483347
1068,-0.281345,0.01625,0.676394
1069,-0.088727,-0.701392,0.793024
1070,0.133615,-0.431834,1.029628
1071,0.22701,-0.148548,1.04391
1072,0.262907,0.563261,0.553828
1073,0.1532,0.325668,0.366725
1074,0.084773,0.201388,0.321704
1075,-0.17945,-0.043026,0.194735
1076,-0.19083,-0.098788,0.123004
1077,-0.148203,-0.12779,0.101718
1078,-0.012176,-0.073396,0.283909
1079,0.065165,-0.096037,0.280585
1080,0.150405,-0.192164,0.05934
1081,-0.031516,-0.166443,0.060818
1082,-0.003249,-0.148183,0.119435
1083,0.197885,-0.00701,0.033336
1084,0.272585,0.121828,-0.08567
1085,0.029139,0.131291,-0.282646
1086,-0.086643,0.129076,-0.15997
1087,0.28134,0.372843,-0.237282
1088,0.458997,0.369282,-0.165063
1089,0.4339,0.350401,-0.159291
1090,0.287109,0.332957,-0.301827
1091,0.093447,0.364034,-0.281639
1092,0.026267,0.437525,-0.331761
1093,0.102125,0.463605,-0.248137
1094,0.16164,0.201204,-0.084557
1095,0.100928,0.136137,0.020905
1096,-0.007559,0.32394,0.463225
1097,-0.201947,0.784672,0.219666
1098,-0.207702,0.596566,0.246214
1099,-0.250295,0.424938,0.325045
1100,-0.423361,0.353386,0.628045
1101,-0.329335,0.17471,0.600021
1102,-0.222012,0.067665,0.629791
1103,0.33139,-0.201756,0.522211
1104,0.32628,-0.225455,0.609621
1105,0.245899,-0.261657,0.714848
1106,-0.123497,-0.400444,0.755729
1107,-0.225322,-0.415289,0.751329
1108,-0.338288,-0.391205,0.800216
1109,-0.317344,-0.412678,0.839903
1110,-0.278525,-0.515236,0.763271
1111,-0.11115,-0.615009,0.525545
1112,0.021941,-0.369852,0.269244
1113,-0.108095,0.093393,-0.384289
1114,-0.37485,0.791395,-1.186013
1115,0.002217,2.290673,-1.175523
1116,0.605685,1.934853,-0.809166
1117,-0.035986,-0.333325,0.176448
1118,-0.416919,-0.728387,0.090627
1119,-0.507266,-0.079996,-0.068838
1120,0.096012,0.79083,1.557624
1121,-0.147754,1.400941,0.901267
1122,-0.766927,-0.257086,0.804959
1123,-0.559328,-1.124557,0.552194
1124,0.03199,-0.804233,1.271459
1125,0.245741,0.014548,1.268041
1126,0.502588,1.240733,0.760366
1127,0.494724,0.656845,0.322032
1128,0.242292,0.14844,0.188877
1129,-0.072015,-0.127542,0.178475
1130,-0.293146,-0.167287,0.240768
1131,-0.206634,-0.212606,0.267047
1132,-0.057014,-0.154131,0.335389
1133,0.063721,-0.164011,0.182786
1134,0.052656,-0.173855,0.084639
1135,-0.021034,-0.14137,0.034977
1136,0.049039,-0.05899,0.091041
1137,0.205775,0.007313,0.035422
1138,0.318461,0.095267,-0.020318
1139,0.047338,0.156656,-0.288972
1140,0.03749,0.249626,-0.225616
1141,0.105945,0.349001,-0.262173
1142,0.595618,0.260528,-0.146665
1143,0.687311,0.238503,-0.166342
1144,0.66179,0.269389,-0.253108
1145,0.208154,0.518126,-0.17215
1146,0.208406,0.515959,-0.255227
1147,0.210152,0.46208,-0.212716
1148,-0.178708,0.152673,0.011631
1149,-0.191926,0.182609,0.220943
1150,-0.191644,0.317066,0.479553
1151,-0.271313,0.603478,0.259047
1152,-0.278636,0.454796,0.280395
1153,-0.4194,0.458132,0.350064
1154,-0.534212,0.505084,0.602493
1155,-0.308569,0.092999,0.681636
1156,0.053063,-0.217567,0.568278
1157,0.242023,-0.325628,0.542243
1158,0.144216,-0.364547,0.675683
1159,0.00245,-0.357235,0.685049
1160,-0.14652,-0.381595,0.695085
1161,-0.209729,-0.388313,0.726688
1162,-0.283224,-0.430934,0.817058
1163,-0.254964,-0.473345,0.817215
1164,-0.210163,-0.509039,0.762285
1165,0.043198,-0.47687,0.483975
1166,0.026502,-0.217225,0.178564
1167,-0.112295,-0.064963,-0.122257
1168,-0.520946,0.981632,-1.196052
1169,0.304872,2.297278,-0.897235
1170,0.339631,0.529539,-0.249848
1171,-0.149412,-0.489833,0.292014
1172,-0.403946,-0.775411,0.010662
1173,-0.648196,-0.493725,-0.184656
1174,-0.149286,0.842222,1.427416
1175,-0.0298,1.160683,1.304338
1176,-0.149374,0.688185,1.03495
1177,-0.315225,-0.797889,0.388855
1178,0.099997,-0.209934,1.269559
1179,0.219309,0.027495,1.00683
1180,0.356053,0.369676,0.723711
1181,0.249843,0.208154,0.233264
1182,0.262137,0.199539,0.197836
1183,-0.14742,-0.018328,0.133681
1184,-0.089758,-0.152811,0.181392
1185,-0.016146,-0.148359,0.190824
1186,0.01979,-0.124918,0.22408
1187,0.119551,-0.104994,0.061367
1188,0.065127,-0.119035,-0.057991
1189,-0.089134,-0.178957,0.078065
1190,-0.051806,-0.140607,0.216242
1191,0.053394,-0.083659,0.157992
1192,0.232726,0.1055,0.018559
1193,0.079164,0.130684,-0.221056
1194,-0.091462,0.070611,-0.213086
1195,0.048349,0.319,-0.237781
1196,0.387968,0.375165,-0.171707
1197,0.569299,0.326598,-0.15758
1198,0.477034,0.313918,-0.247101
1199,0.145887,0.32159,-0.327694
1200,0.069127,0.339573,-0.174031
1201,0.205099,0.391325,-0.079736
1202,0.106472,0.130733,-0.042548
1203,-0.008082,0.132211,0.039828
1204,-0.216226,0.544491,0.497711
1205,-0.228558,0.816665,0.257692
1206,-0.221372,0.663489,0.303675
1207,-0.344855,0.321781,0.363457
1208,-0.485751,0.388696,0.494422
1209,-0.4638,0.283246,0.509911
1210,-0.003329,-0.084718,0.583912
1211,0.153536,-0.181596,0.499749
1212,0.150835,-0.222986,0.551112
1213,-0.007408,-0.331024,0.689812
1214,-0.122638,-0.303448,0.760791
1215,-0.176406,-0.342372,0.801622
1216,-0.246926,-0.392683,0.821531
1217,-0.268304,-0.438266,0.811305
1218,-0.244098,-0.457513,0.708329
1219,-0.08841,-0.504297,0.518268
1220,0.03085,-0.410125,0.327405
1221,-0.150117,-0.144039,-0.246019
1222,-0.387108,0.383448,-1.111302
1223,0.214483,1.910445,-0.83854
1224,0.222864,1.91492,-0.831305
1225,0.057258,0.075778,0.093946
1226,-0.339251,-0.609542,-0.16004
1227,-0.526994,-0.445524,-0.015156
1228,-0.350547,-0.017976,1.31572
1229,-0.558285,0.806796,1.118906
1230,-0.682892,1.435482,0.052444
1231,0.003753,-0.434828,1.05866
1232,0.197194,-0.659848,1.046077
1233,0.181937,-0.684707,0.993131
1234,0.331716,0.784091,0.666754
1235,0.197917,0.476239,0.354663
1236,0.115306,0.294869,0.252812
1237,-0.042007,0.034181,0.156471
1238,-0.246518,-0.14423,0.278538
1239,-0.232417,-0.166037,0.286798
1240,-0.112526,-0.173901,0.344923
1241,0.016982,-0.171963,0.304592
1242,0.02232,-0.180477,0.023055
1243,-0.082719,-0.202976,0.084997
1244,-0.053307,-0.1337,0.12701
1245,-0.035262,-0.131049,0.094203
1246,0.210296,0.176699,-0.198819
1247,0.050808,0.132979,-0.251911
1248,0.07529,0.206335,-0.218177
1249,0.385417,0.43741,-0.25556
1250,0.413357,0.37895,-0.16353
1251,0.399737,0.362123,-0.231383
1252,0.150262,0.322083,-0.346208
1253,-0.049673,0.25704,-0.426272
1254,-0.002019,0.234468,-0.283067
1255,0.360755,0.280489,-0.14355
1256,0.348778,0.159582,0.048403
1257,0.177098,0.204486,0.142671
1258,-0.333683,0.665737,0.50356
1259,-0.366587,0.810756,0.454541
1260,-0.316509,0.634898,0.402341
1261,-0.405493,0.472862,0.389584
1262,-0.439015,0.448209,0.454141
1263,-0.321074,0.242555,0.500821
1264,0.001538,-0.069206,0.651255
1265,0.168957,-0.236244,0.565097
1266,0.190834,-0.281687,0.568941
1267,0.048794,-0.318704,0.779275
1268,-0.076161,-0.350116,0.822909
1269,-0.160061,-0.389646,0.826617
1270,-0.294109,-0.435104,0.867237
1271,-0.320946,-0.487519,0.832648
1272,-0.336611,-0.547608,0.731198
1273,-0.176004,-0.555609,0.53815
1274,-0.076266,-0.091743,0.097988
1275,-0.181339,0.122909,-0.252962
1276,-0.36177,0.360776,-0.672726
1277,-0.212629,1.777149,-0.949016
1278,0.286865,1.638162,-0.788069
1279,-0.058857,-0.32067,0.095243
1280,-0.262102,-0.6809,0.151899
1281,-0.536822,-0.113906,-0.165179
1282,-0.335797,0.826561,0.931587
1283,-0.12201,1.571284,0.949306
1284,-0.314392,0.346758,0.920368
1285,-0.422641,-1.191503,0.669323
1286,-0.073097,-0.680563,1.307746
1287,0.12921,0.23803,1.12519
1288,0.326502,0.993008,0.905102
1289,0.512375,0.539335,0.202531
1290,0.379138,0.253586,0.13886
1291,-0.241441,-0.163964,0.332081
1292,-0.432815,-0.190469,0.339705
1293,-0.383967,-0.204744,0.258894
1294,-0.12187,-0.091908,0.305344
1295,0.035697,-0.106206,0.237897
1296,0.07944,-0.149638,0.126269
1297,-0.090634,-0.173392,0.143082
1298,-0.007188,-0.148885,0.09347
1299,0.089965,-0.091045,0.013092
1300,0.244557,0.113352,-0.132208
1301,0.051782,0.096775,-0.240102
1302,0.032441,0.119229,-0.205884
1303,0.199492,0.406844,-0.27598
1304,0.296129,0.312532,-0.165357
1305,0.328493,0.266302,-0.206542
1306,0.264313,0.300494,-0.301603
1307,0.009616,0.277897,-0.499452
1308,-0.070743,0.191762,-0.423883
1309,0.216058,0.325221,-0.344662
1310,0.361931,0.181936,0.020011
1311,0.329343,0.150573,0.105113
1312,-0.20672,0.470838,0.398103
1313,-0.396023,0.918752,0.508069
1314,-0.378651,0.851479,0.43504
1315,-0.362312,0.434936,0.393002
1316,-0.555435,0.515322,0.327483
1317,-0.434798,0.290079,0.470387
1318,-0.161682,-0.006598,0.629301
1319,-0.003363,-0.130755,0.635041
1320,0.05446,-0.187145,0.591083
1321,0.021358,-0.233627,0.718182
1322,-0.09668,-0.242084,0.777307
1323,-0.205115,-0.311442,0.779874
1324,-0.327233,-0.428083,0.807555
1325,-0.408162,-0.488175,0.827398
1326,-0.418496,-0.51844,0.704822
1327,-0.285451,-0.460581,0.468846
1328,0.013516,-0.250246,0.274674
1329,0.05284,-0.15695,0.082058
1330,0.021486,-0.03809,-0.136676
1331,-0.20688,1.084136,-0.87706
1332,0.027784,1.336286,-0.796115
1333,0.172862,0.57936,-0.297842
1334,-0.206645,-0.353408,0.001345
1335,-0.410459,-0.326248,-0.141372
1336,-0.56657,0.697189,0.924447
1337,-0.377818,0.997658,1.049958
1338,-0.37951,0.837263,0.667929
1339,-0.312687,-0.917493,0.819483
1340,-0.041365,-0.643849,1.04123
1341,0.193598,-0.349274,1.298821
1342,0.284036,0.818118,0.789022
1343,0.483605,0.801925,0.43492
1344,0.377376,0.447106,0.307844
1345,-0.319289,-0.144816,0.297905
1346,-0.454603,-0.167766,0.279077
1347,-0.440262,-0.153284,0.234849
1348,-0.269962,-0.125607,0.264032
1349,-0.061172,-0.112093,0.364641
1350,-0.003715,-0.111238,0.301039
1351,-0.098639,-0.180852,0.044477
1352,-0.146902,-0.167833,0.060181
1353,-0.110498,-0.138059,0.028549
1354,0.155766,0.078577,-0.138187
1355,0.197152,0.100069,-0.207259
1356,0.136303,0.090804,-0.24282
1357,0.234104,0.359966,-0.247798
1358,0.289003,0.365309,-0.193
1359,0.283034,0.309943,-0.11319
1360,0.261616,0.354894,-0.324187
1361,0.055462,0.343565,-0.402959
1362,-0.058957,0.295881,-0.474142
1363,0.222213,0.31392,-0.377928
1364,0.403195,0.194535,-0.105965
1365,0.451661,0.068119,0.079749
1366,0.166093,0.357694,0.249071
1367,-0.346037,0.967858,0.43934
1368,-0.387197,0.859299,0.319331
1369,-0.356198,0.450839,0.415508
1370,-0.531314,0.476272,0.472798
1371,-0.507249,0.409458,0.428631
1372,-0.382964,0.2426,0.435254
1373,0.054892,-0.109164,0.623596
1374,0.095895,-0.182656,0.647017
1375,0.149034,-0.250698,0.621291
1376,-0.065704,-0.299852,0.857909
1377,-0.047985,-0.277537,0.896712
1378,-0.224951,-0.358978,0.822708
1379,-0.331276,-0.485161,0.882915
1380,-0.349414,-0.517268,0.874739
1381,-0.239136,-0.594367,0.684532
1382,-0.100228,-0.473603,0.454396
1383,-0.058618,-0.347131,0.263148
1384,-0.32482,0.206418,-0.736709
1385,-0.465092,1.022909,-0.970858
1386,-0.335932,1.717499,-0.8726
1387,0.31106,0.431599,-0.260721
1388,-0.125938,-0.409533,0.196907
1389,-0.339552,-0.643754,0.172867
1390,-0.629694,0.948623,0.357763
1391,-0.223883,1.432862,1.174565
1392,0.043389,1.654797,1.172825
1393,-0.113779,-1.040067,1.340519
1394,-0.424282,-0.995051,0.378931
1395,-0.042331,-0.708935,0.937735
1396,0.349184,0.617946,1.077595
1397,0.520548,1.161301,0.573435
1398,0.529631,0.782106,0.320509
1399,0.102352,-0.028611,0.366841
1400,-0.313076,-0.127379,0.289735
1401,-0.463507,-0.135914,0.171301
1402,-0.306034,-0.249998,0.180783
1403,-0.06709,-0.238511,0.360339
1404,0.029872,-0.202302,0.376366
1405,0.091423,-0.130228,0.047281
1406,-0.044246,-0.157706,0.036833
1407,-0.057099,-0.20119,0.193463
1408,0.173064,-0.073638,0.070858
1409,0.189555,0.135774,-0.052817
1410,0.207101,0.139788,-0.083176
1411,0.119347,0.311582,-0.305991
1412,0.309365,0.483468,-0.285203
1413,0.415144,0.450654,-0.262385
1414,0.665993,0.322948,-0.263167
1415,0.335764,0.529381,-0.423779
1416,0.128834,0.494823,-0.485772
1417,-0.004439,0.410979,-0.277012
1418,0.214829,0.389527,-0.108933
1419,0.124099,0.283352,0.089697
1420,-0.043896,0.319082,0.558008
1421,-0.295853,0.86727,0.295037
1422,-0.296525,0.968031,0.20815
1423,-0.205355,0.80127,0.431886
1424,-0.550737,0.814457,0.602287
1425,-0.484594,0.572188,0.630715
1426,-0.159121,0.023872,0.796301
1427,0.260789,-0.276522,0.557244
1428,0.308641,-0.29257,0.631225
1429,-0.059681,-0.340875,0.914686
1430,-0.157479,-0.3599,0.937391
1431,-0.214012,-0.361697,0.983635
1432,-0.285909,-0.449803,1.04101
1433,-0.276304,-0.55151,0.9638
1434,-0.208916,-0.664069,0.747906
1435,-0.152738,-0.691607,0.480808
1436,-0.060371,-0.595204,0.383152
1437,-0.005048,-0.261532,-0.027459
1438,-0.370769,1.022481,-1.038462
1439,0.140466,2.819283,-1.063027
1440,0.19586,0.790847,-0.181663
1441,-0.134912,-0.470927,0.112068
1442,-0.474473,-0.85756,-0.169302
1443,-0.560546,-0.408289,-0.135898
1444,0.088724,0.980313,1.434862
1445,-0.108271,1.59606,1.304417
1446,-0.353023,0.881486,0.955453
1447,-0.422005,-0.93818,0.314561
1448,-0.150077,-0.599714,1.155592
1449,0.098791,-0.362778,1.460683
1450,0.376839,0.535008,0.553402
1451,0.26586,0.361415,0.332966
1452,0.269678,0.344,0.284786
1453,0.08295,-0.000115,0.309127
1454,-0.190505,0.022737,0.288782
1455,-0.09972,0.018633,0.212956
1456,0.024414,-0.042944,0.174135
1457,0.097586,-0.071658,0.243819
1458,0.078318,-0.138483,0.210204
1459,0.000407,-0.239726,0.186862
1460,-0.213142,-0.242479,0.17114
1461,-0.230077,-0.188456,0.093917
1462,0.044618,-0.010565,0.033486
1463,0.220901,0.127595,-0.14772
1464,0.157548,0.181345,-0.20932
1465,0.2143,0.27536,-0.108286
1466,0.267707,0.365109,-0.158693
1467,0.327582,0.327617,-0.001169
1468,0.391099,0.35217,-0.241697
1469,0.105343,0.373311,-0.306913
1470,-0.008274,0.336488,-0.373699
1471,0.021672,0.074831,-0.332834
1472,0.37383,0.230844,-0.186949
1473,0.444418,0.269754,-0.060995
1474,0.302727,0.281515,0.385495
1475,-0.185861,0.588566,0.477059
1476,-0.345079,0.83869,0.53658
1477,-0.407323,0.549995,0.351105
1478,-0.463478,0.594048,0.420481
1479,-0.595564,0.646517,0.561698
1480,-0.303708,0.097913,0.572108
1481,-0.052338,0.010547,0.736398
1482,0.027976,-0.09929,0.776034
1483,0.208527,-0.339627,0.730867
1484,0.021843,-0.317632,0.80815
1485,-0.030481,-0.294059,0.833469
1486,-0.205579,-0.416598,0.95603
1487,-0.246637,-0.475502,0.957259
1488,-0.253767,-0.57326,0.882085
1489,-0.227011,-0.693283,0.669391
1490,-0.122905,-0.68987,0.566554
1491,0.001306,-0.563156,0.444844
1492,-0.253301,0.123194,-0.654954
1493,-0.495459,2.419133,-1.404779
1494,-0.491582,2.421347,-1.401765
1495,0.310942,0.310247,-0.23157
1496,-0.429311,-0.925973,0.294601
1497,-0.436631,-0.919125,0.305145
1498,-0.493496,-0.277768,0.315267
1499,-0.029886,1.035555,1.393447
1500,-0.039192,1.022627,1.373919
1501,-0.170839,0.645813,1.15902
1502,-0.178513,-0.575846,0.862635
1503,-0.189614,-0.600406,0.820274
1504,0.189964,0.200953,0.853098
1505,0.314398,0.618481,0.566611
1506,0.227493,0.474702,0.510546
1507,-0.067104,0.09615,0.385981
1508,-0.048118,0.081548,0.279189
1509,-0.071544,-0.102503,0.214721
1510,-0.118406,-0.216916,0.289391
1511,-0.058853,-0.249555,0.321828
1512,-0.046011,-0.255483,0.155222
1513,-0.10012,-0.176776,0.045539
1514,-0.047613,-0.166609,0.163536
1515,0.059747,-0.123523,0.102146
1516,0.344299,0.026458,-0.085994
1517,0.179646,0.125931,-0.218802
1518,0.048546,0.181573,-0.157674
1519,0.12501,0.423121,-0.318703
1520,0.350114,0.311325,-0.096539
1521,0.543609,0.315574,-0.137109
1522,0.447056,0.415576,-0.361409
1523,0.061522,0.377694,-0.400617
1524,-0.061665,0.344594,-0.297747
1525,0.269358,0.309633,-0.012095
1526,0.296917,0.119298,0.11822
1527,0.244902,0.08127,0.174914
1528,-0.096101,0.648772,0.553948
1529,-0.398702,1.193879,0.418466
1530,-0.368769,0.972036,0.379335
1531,-0.361349,0.537371,0.401234
1532,-0.633194,0.717724,0.630371
1533,-0.601905,0.477647,0.67597
1534,-0.078732,-0.04087,0.756403
1535,0.163906,-0.259073,0.68396
1536,0.192485,-0.333871,0.723919
1537,0.086884,-0.365712,0.881323
1538,-0.102463,-0.419084,0.839651
1539,-0.080436,-0.396564,0.869509
1540,-0.329381,-0.525419,0.927785
1541,-0.329013,-0.617496,0.878486
1542,-0.3156,-0.61853,0.87551
1543,-0.172011,-0.615288,0.6478
1544,0.06514,-0.369821,0.391917
1545,-0.140112,0.095924,-0.464942
1546,-0.503724,0.962726,-1.285238
1547,0.002765,2.721324,-1.067842
1548,0.504885,0.742282,-0.295092
1549,-0.101811,-0.487304,0.318542
1550,-0.463435,-0.566784,-0.004699
1551,-0.678728,-0.237699,-0.206437
1552,0.27384,1.071905,1.581154
1553,-0.239507,0.123706,1.434247
1554,-0.30959,-0.684934,1.133216
1555,-0.405047,-0.820907,0.593197
1556,0.249928,0.141402,1.356055
1557,0.241382,0.416721,0.971556
1558,0.269782,0.52527,0.473807
1559,0.128534,0.151575,0.419267
1560,0.023604,0.077996,0.378538
1561,-0.224164,-0.028474,0.152331
1562,-0.171423,-0.143585,0.138668
1563,5.00E-05,-0.119206,0.348871
1564,0.209555,-0.120184,0.339023
1565,0.216788,-0.160541,0.020986
1566,0.100821,-0.157628,-0.019889
1567,-0.065033,-0.20993,0.111716
1568,0.191149,-0.109872,0.080751
1569,0.294138,0.048714,0.077703
1570,0.028859,0.176823,-0.051494
1571,-0.16868,0.13463,-0.083325
1572,-0.008469,0.289823,-0.203969
1573,0.412733,0.389478,-0.059844
1574,0.610291,0.355667,-0.062784
1575,0.559496,0.379804,-0.215401
1576,0.019811,0.364864,-0.311914
1577,-0.000499,0.371095,-0.226679
1578,0.052238,0.351474,-0.236496
1579,0.267267,0.339248,0.006047
1580,0.069318,0.18564,0.103504
1581,-0.066619,0.186447,0.397349
1582,-0.303761,0.763322,0.514212
1583,-0.267246,0.574707,0.254717
1584,-0.292609,0.584945,0.307435
1585,-0.574352,0.663262,0.589119
1586,-0.364312,0.191103,0.688604
1587,-0.244164,0.054533,0.787698
1588,0.26923,-0.309413,0.555727
1589,0.264332,-0.350496,0.792141
1590,0.262731,-0.322762,0.836415
1591,-0.130529,-0.364802,0.825152
1592,-0.281049,-0.38671,0.9186
1593,-0.257535,-0.368107,0.940326
1594,-0.226343,-0.590104,0.884266
1595,-0.152871,-0.652358,0.765074
1596,-0.089447,-0.657428,0.675341
1597,0.055125,-0.558732,0.448565
1598,-0.058454,0.028347,-0.516959
1599,-0.317041,0.381821,-1.012906
1600,-0.532303,1.75624,-1.081108
1601,0.381425,0.953496,-0.315633
1602,0.103507,0.197274,-0.032054
1603,-0.337398,-0.443583,-0.228871
1604,-0.799374,0.36672,-0.313507
1605,-0.654921,0.746079,0.418893
1606,-0.040285,0.578532,1.425177
1607,-0.103355,-0.791467,1.250472
1608,-0.258386,-0.878722,0.680748
1609,0.31625,-0.017934,1.458371
1610,0.367813,0.373179,1.404168
1611,0.449945,0.928262,0.672768
1612,0.221739,0.09542,0.362407
1613,-0.006371,-0.186058,0.277953
1614,-0.113138,-0.160856,0.282274
1615,-0.438459,0.060583,0.294343
1616,-0.066731,-0.001326,0.221637
1617,0.114513,-0.08725,0.299584
1618,0.240868,-0.095669,0.389403
1619,0.261626,-0.123573,0.32221
1620,0.01201,-0.212626,0.077288
1621,-0.288451,-0.260191,0.177842
1622,-0.266567,-0.187124,0.114778
1623,0.05423,-0.01578,-0.011249
1624,0.32486,0.09508,-0.048814
1625,0.24908,0.204745,-0.146891
1626,0.067983,0.330243,-0.211201
1627,0.260161,0.331159,-0.152542
1628,0.625717,0.374169,0.00284
1629,0.689221,0.418671,-0.249471
1630,0.128299,0.399813,-0.299173
1631,0.077055,0.382236,-0.176224
1632,0.075449,0.387325,-0.213157
1633,0.164917,0.359109,-0.011341
1634,-0.212393,0.188332,0.396938
1635,-0.230786,0.191145,0.458951
1636,-0.498216,0.839762,0.19593
1637,-0.394979,0.480255,0.243842
1638,-0.421939,0.491319,0.294903
1639,-0.54395,0.545861,0.624376
1640,-0.24017,0.114486,0.672889
1641,-0.102501,0.005404,0.732751
1642,0.251825,-0.328227,0.616372
1643,0.147862,-0.357412,0.693649
1644,0.143602,-0.334278,0.730317
1645,-0.010309,-0.233336,0.86556
1646,-0.172933,-0.424479,0.891332
1647,-0.149543,-0.410508,0.90868
1648,-0.190135,-0.595434,0.950126
1649,-0.1797,-0.78218,0.669469
1650,-0.152795,-0.743989,0.597454
1651,-0.050283,-0.455368,0.400084
1652,-0.245924,0.457192,-0.707169
1653,-0.483913,1.146672,-1.188168
1654,0.016008,1.406049,-0.616976
1655,0.039226,-0.338903,-0.248375
1656,-0.078078,-0.595559,0.187662
1657,-0.288422,-0.248284,-0.123519
1658,-0.363292,0.018362,0.549658
1659,-0.236379,-0.00568,2.266087
1660,-0.16279,2.457589,-0.393963
1661,0.273142,0.109024,1.972173
1662,-0.011724,-0.707614,0.688845
1663,-0.006771,-0.473942,1.159582
1664,0.030594,0.096355,1.070199
1665,0.260279,0.814085,0.830946
1666,0.08783,0.30316,0.230174
1667,0.043597,0.163398,0.118375
1668,-0.016926,0.01067,0.036257
1669,-0.299422,-0.203956,0.260993
1670,-0.099786,-0.257422,0.417351
1671,0.002737,-0.244361,0.357157
1672,0.1598,-0.079554,-0.026417
1673,0.055256,-0.204854,0.114561
1674,-0.029211,-0.238787,0.229912
1675,0.035867,-0.117011,0.110178
1676,0.012317,0.01697,-0.013941
1677,-0.03867,0.066712,-0.040692
1678,0.076599,0.180699,-0.206721
1679,0.394272,0.490307,-0.214185
1680,0.412401,0.494464,-0.225905
1681,0.529368,0.310313,-0.202218
1682,0.226942,0.395397,-0.382761
1683,0.232272,0.395618,-0.374693
1684,-0.057383,0.213218,-0.218108
1685,0.210413,0.287759,-0.257637
1686,0.307012,0.251689,0.068212
1687,0.197333,0.111883,0.226865
1688,-0.273193,0.378309,0.443839
1689,-0.386779,0.909135,0.676655
1690,-0.301122,0.76509,0.549212
1691,-0.445113,0.522166,0.29151
1692,-0.548074,0.58881,0.404692
1693,-0.427981,0.442477,0.602424
1694,-0.089636,-0.047473,0.772788
1695,-0.044174,-0.079335,0.792065
1696,0.073206,-0.284828,0.771721
1697,-0.037344,-0.288782,0.893905
1698,-0.061788,-0.297436,0.943567
1699,-0.283922,-0.575784,0.832942
1700,-0.305721,-0.590861,0.8327
1701,-0.351044,-0.63468,0.79403
1702,-0.225608,-0.601849,0.59336
1703,-0.023576,-0.498652,0.473422
1704,0.023931,-0.244782,0.205101
1705,-0.259187,0.306174,-0.607961
1706,-0.391239,0.778517,-0.961439
1707,-0.228131,2.144873,-1.019813
1708,0.24388,0.172347,-0.0649
1709,-0.109449,-0.630704,0.357007
1710,-0.199379,-0.777262,0.28033
1711,-0.409022,-0.389039,0.19347
1712,-0.16007,0.051005,1.973914
1713,-0.149009,0.3399,2.159543
1714,-0.15063,2.477827,0.018736
1715,0.130383,-0.256725,1.422504
1716,0.138152,-0.785258,1.067693
1717,-0.00655,-0.47139,1.089834
1718,0.066105,0.226753,0.888394
1719,0.142856,0.553033,0.767906
1720,0.105311,0.248422,0.063047
1721,-0.109649,-0.081362,0.083785
1722,-0.098538,-0.08823,0.054342
1723,-0.150801,-0.247224,0.587453
1724,0.030366,-0.269177,0.461675
1725,0.125861,-0.078262,0.019808
1726,0.082219,-0.088352,-0.092786
1727,-0.044062,-0.182355,0.216959
1728,0.046872,-0.132239,0.178122
1729,0.156652,-0.030629,0.003253
1730,0.033964,0.101949,-0.014745
1731,-0.074948,0.074778,-0.072237
1732,0.080565,0.240624,-0.126911
1733,0.298014,0.43683,-0.165983
1734,0.381683,0.331881,-0.039302
1735,0.400704,0.287701,-0.221412
1736,0.11701,0.352304,-0.286624
1737,0.107988,0.336065,-0.197024
1738,0.192782,0.48279,-0.246681
1739,0.211069,0.107612,0.021991
1740,0.118244,0.027734,0.047617
1741,-0.010734,0.100101,0.359767
1742,-0.149549,0.845657,0.610617
1743,-0.227488,1.041906,0.459906
1744,-0.203786,0.590364,0.431722
1745,-0.506266,0.568216,0.462433
1746,-0.501573,0.483072,0.589437
1747,-0.226004,0.06526,0.803358
1748,-0.105837,0.008211,0.7788
1749,0.155271,-0.393615,0.596302
1750,0.041811,-0.408064,0.765031
1751,-0.013489,-0.375835,0.858058
1752,-0.113227,-0.380898,0.869461
1753,-0.195074,-0.421141,0.852479
1754,-0.295859,-0.420807,0.86529
1755,-0.34802,-0.463907,0.81503
1756,-0.22221,-0.48294,0.702836
1757,-0.074212,-0.432716,0.507132
1758,0.051194,-0.190358,0.134893
1759,-0.28014,0.783864,-0.972419
1760,-0.410529,1.586842,-1.109148
1761,-0.034068,2.30823,-1.048612
1762,0.115786,0.224495,-0.105835
1763,-0.233301,-0.42222,0.495269
1764,-0.366814,-0.623165,0.39016
1765,-0.573762,0.21325,-0.152735
1766,0.01579,0.884099,1.339192
1767,0.065854,1.123137,1.46717
1768,-0.249459,-0.325162,1.178844
1769,-0.140366,-0.461825,0.942788
1770,-0.146092,-0.496058,0.889386
1771,0.434634,0.563398,0.946422
1772,0.346183,0.603729,0.495644
1773,0.337707,0.587399,0.454734
1774,0.02315,0.099576,0.338267
1775,-0.271835,0.02382,0.2466
1776,-0.235802,-0.090326,0.232754
1777,-0.113404,-0.187998,0.252344
1778,0.02672,-0.170118,0.42869
1779,0.172196,-0.072564,0.363211
1780,0.15064,-0.112476,0.05115
1781,-0.135026,-0.159329,0.193997
1782,-0.1044,-0.151239,0.18927
1783,0.127449,-0.006437,0.070644
1784,0.20323,0.132743,-0.101353
1785,0.102644,0.182037,-0.188318
1786,-0.008326,0.242535,-0.105539
1787,0.241516,0.352442,-0.177533
1788,0.42256,0.327648,-0.080894
1789,0.400966,0.424416,-0.256732
1790,0.179763,0.420659,-0.327759
1791,-0.074284,0.362153,-0.203974
1792,0.041933,0.332652,-0.330281
1793,0.162045,0.311674,-0.147699
1794,0.033927,0.138422,0.062438
1795,-0.242144,0.213896,0.484952
1796,-0.354239,0.42074,0.594289
1797,-0.395293,0.775169,0.255737
1798,-0.276888,0.445792,0.364915
1799,-0.445776,0.428876,0.525024
1800,-0.550742,0.484025,0.629512
1801,-0.241671,0.12819,0.701825
1802,0.033495,-0.070477,0.642024
1803,0.155259,-0.24646,0.624293
1804,-0.006929,-0.288529,0.717016
1805,-0.098032,-0.257449,0.865972
1806,-0.210822,-0.349167,0.884947
1807,-0.284425,-0.406871,0.891298
1808,-0.254085,-0.445985,0.930995
1809,-0.220847,-0.470236,0.889841
1810,-0.019427,-0.537743,0.658081
1811,0.056142,-0.475383,0.532987
1812,0.091526,-0.359945,0.342018
1813,-0.412804,0.240041,-0.978228
1814,-0.274005,2.116655,-1.027835
1815,-0.266942,2.12238,-1.019998
1816,0.149592,0.354875,-0.052814
1817,-0.437634,-0.7748,0.336654
1818,-0.437918,-0.768678,0.344344
1819,-0.334195,0.359392,1.278135
1820,-0.340268,1.563599,1.068424
1821,-0.439757,2.101675,-0.064282
1822,0.036905,-0.933988,1.200209
1823,-0.049632,-1.053591,0.841835
1824,0.037728,-0.581488,1.288077
1825,0.030917,0.140181,1.082605
1826,0.187567,0.886337,0.519333
1827,0.184558,0.539302,0.339685
1828,0.05922,0.075276,0.254253
1829,-0.244581,-0.110011,0.242112
1830,-0.256967,-0.107442,0.25705
1831,-0.099828,-0.125585,0.284195
1832,0.158515,-0.056976,0.272866
1833,0.218365,-0.085649,0.160922
1834,-0.089163,-0.196099,0.188542
1835,-0.150964,-0.199092,0.226182
1836,-0.146853,-0.168689,0.173465
1837,-0.027174,0.016419,0.006501
1838,-0.027527,0.028053,-0.024011
1839,-0.071537,0.021321,-0.163466
1840,0.182794,0.277187,-0.148231
1841,0.302542,0.348302,-0.208581
1842,0.372889,0.305503,-0.080243
1843,0.193484,0.337007,-0.263362
1844,0.007879,0.346963,-0.312917
1845,-0.126452,0.376641,-0.210882
1846,0.074674,0.421276,-0.149121
1847,0.322877,0.318112,0.095472
1848,0.039292,0.240616,0.108622
1849,-0.334327,0.295291,0.332117
1850,-0.485583,0.726979,0.515997
1851,-0.431328,0.68603,0.261346
1852,-0.355759,0.33584,0.280516
1853,-0.428724,0.261178,0.466655
1854,-0.496981,0.373402,0.61338
1855,-0.240015,0.161065,0.642499
1856,-0.004501,-0.042869,0.647794
1857,0.117077,-0.105749,0.595121
1858,-0.022407,-0.168384,0.694983
1859,-0.109632,-0.254174,0.856714
1860,-0.154631,-0.296024,0.843008
1861,-0.232061,-0.394721,0.896357
1862,-0.224215,-0.492123,0.919301
1863,-0.206252,-0.491932,0.897428
1864,-0.202009,-0.50555,0.796727
1865,-0.01835,-0.39079,0.528237
1866,0.030704,-0.272784,0.366782
1867,-0.169093,0.101807,-0.362737
1868,-0.571279,1.639996,-1.14247
1869,-0.145502,2.363042,-0.906681
1870,0.400048,0.807181,-0.3229
1871,-0.436228,-0.522837,0.617789
1872,-0.579296,-0.577769,0.303855
1873,-0.657189,0.060644,0.159118
1874,-0.118492,0.948385,1.043467
1875,-0.219438,1.128091,0.738626
1876,0.055234,-0.638896,1.014464
1877,0.055453,-0.636989,0.701077
1878,0.361812,-0.122382,1.177593
1879,0.289302,0.724588,0.785536
1880,0.163887,0.340354,0.440967
1881,0.089707,0.184484,0.331393
1882,-0.285254,0.060841,0.274833
1883,-0.253788,-0.105658,0.273399
1884,-0.233688,-0.186963,0.204459
1885,0.004407,-0.163605,0.470421
1886,0.086359,-0.158493,0.454665
1887,0.1705,-0.101614,0.253709
1888,-0.099976,-0.14516,0.200516
1889,-0.080624,-0.132858,0.261135
1890,-0.045636,-0.098635,0.282681
1891,0.142426,0.015991,0.156631
1892,0.017539,0.130822,0.064013
1893,-0.057191,0.153364,-0.006533
1894,-0.015709,0.305245,-0.130749
1895,0.234514,0.436707,-0.148111
1896,0.460479,0.335079,-0.059103
1897,0.617978,0.282528,-0.116675
1898,0.327186,0.412498,-0.232566
1899,0.12094,0.468521,-0.100972
1900,0.158643,0.489336,-0.196935
1901,0.147575,0.221875,-0.110723
1902,0.002119,0.05024,0.032726
1903,-0.043971,0.1007,0.48373
1904,-0.152695,0.445063,0.619581
1905,-0.271653,0.920571,0.331313
1906,-0.222326,0.619427,0.366019
1907,-0.373922,0.459428,0.450603
1908,-0.465634,0.507835,0.752346
1909,-0.271946,0.074606,0.771397
1910,0.067227,-0.137364,0.627778
1911,0.169796,-0.246626,0.637216
1912,0.184521,-0.352559,0.72147
1913,0.005225,-0.233729,0.853284
1914,-0.03922,-0.23524,0.870805
1915,-0.177517,-0.267413,0.883596
1916,-0.25122,-0.348411,0.959901
1917,-0.244771,-0.405541,0.915857
1918,-0.197866,-0.526602,0.77905
1919,-0.02482,-0.480263,0.492388
1920,0.050184,-0.367951,0.339095
1921,-0.06004,0.01842,-0.274054
1922,-0.418723,1.497443,-1.106869
1923,-0.140074,2.46658,-1.208058
1924,0.120001,0.366464,-0.088589
1925,-0.352112,-0.351795,0.393023
1926,-0.503608,-0.37869,0.200947
1927,-0.353822,0.378728,-0.05446
1928,0.188394,0.766365,0.772535
1929,0.228498,0.719549,2.124156
1930,-0.694469,-0.657165,0.503009
1931,-0.212607,-0.509789,0.642997
1932,0.225918,-0.258783,1.280109
1933,0.419138,0.549997,0.885145
1934,0.275275,0.512586,0.412841
1935,0.241602,0.342363,0.309555
1936,-0.020693,0.087444,0.46938
1937,-0.111408,0.037671,0.344562
1938,-0.055969,-0.002838,0.275739
1939,-0.005591,-0.060085,0.281781
1940,0.054929,-0.064161,0.324285
1941,0.08641,-0.137652,0.232163
1942,-0.143577,-0.203174,0.199988
1943,-0.197963,-0.174663,0.315692
1944,-0.094905,-0.173915,0.260342
1945,0.234996,0.034111,0.149169
1946,0.148182,0.135881,0.012312
1947,-0.069789,0.16276,-0.07131
1948,0.010689,0.320663,-0.103084
1949,0.233557,0.446431,-0.149161
1950,0.447266,0.352021,0.039536
1951,0.574726,0.311636,-0.088541
1952,0.172881,0.356584,-0.148779
1953,0.11291,0.400391,-0.084689
1954,0.133775,0.402434,-0.195373
1955,0.157206,0.267888,-0.043939
1956,0.106201,0.187816,0.039968
1957,-0.092221,0.177012,0.281076
1958,-0.409228,0.609515,0.664433
1959,-0.39207,0.698468,0.516097
1960,-0.250951,0.410977,0.236026
1961,-0.323507,0.476173,0.49571
1962,-0.409704,0.501559,0.687888
1963,-0.353868,0.256637,0.768042
1964,-0.055698,-0.111251,0.690219
1965,0.20947,-0.319064,0.614585
1966,0.10818,-0.338531,0.725739
1967,0.025861,-0.27748,0.766752
1968,-0.109621,-0.217097,0.837732
1969,-0.243039,-0.280137,0.888802
1970,-0.249052,-0.279728,0.917309
1971,-0.250484,-0.405499,0.850786
1972,-0.171794,-0.497171,0.754363
1973,-0.096253,-0.523389,0.647847
1974,0.027744,-0.322487,0.253671
1975,-0.261821,0.069763,-0.573881
1976,-0.393113,1.027636,-1.03235
1977,0.242831,2.549268,-0.874949
1978,0.389034,0.74073,-0.185972
1979,-0.178095,-0.405601,0.321553
1980,-0.384075,-0.655694,0.382354
1981,-0.29063,0.595193,0.813534
1982,0.109039,0.973371,1.675482
1983,0.252869,1.287968,1.840176
1984,-0.372846,-0.316112,1.077288
1985,-0.632041,-1.022985,0.308249
1986,-0.563817,-0.879991,0.566527
1987,0.184404,0.096589,1.243048
1988,0.460732,0.775831,0.832882
1989,0.444728,0.845709,0.665084
1990,0.264801,0.151867,0.284037
1991,-0.169605,-0.005813,0.296796
1992,-0.166901,-0.052546,0.334211
1993,-0.048155,-0.099237,0.27567
1994,0.035866,-0.098214,0.272952
1995,0.052555,-0.116601,0.228274
1996,0.005794,-0.178106,0.168464
1997,-0.088757,-0.220997,0.306627
1998,-0.055172,-0.19566,0.238112
1999,0.101379,-0.023897,0.119099
2000,0.006055,0.152008,-0.04566
2001,-0.082122,0.149776,-0.120259
2002,-0.067813,0.217232,-0.074148
2003,0.339559,0.464445,-0.075953
2004,0.452983,0.412822,-0.029156
2005,0.550602,0.318388,-0.048297
2006,0.153064,0.416516,-0.20658
2007,0.039658,0.432145,-0.174888
2008,0.015773,0.414993,-0.155088
2009,0.165516,0.239391,-0.044348
2010,0.127119,0.101115,0.054774
2011,-0.106125,0.031322,0.252683
2012,-0.426952,0.555711,0.624122
2013,-0.462486,0.760014,0.567059
2014,-0.218907,0.379921,0.354464
2015,-0.388329,0.358687,0.542144
2016,-0.590325,0.516831,0.649162
2017,-0.333077,0.200125,0.727129
2018,0.043895,-0.050864,0.662893
2019,0.223059,-0.215712,0.645597
2020,-0.036464,-0.312851,0.775359
2021,-0.085566,-0.296878,0.806271
2022,-0.131055,-0.2802,0.834349
2023,-0.244412,-0.291055,0.927181
2024,-0.248964,-0.310206,0.953199
2025,-0.24268,-0.331968,0.934453
2026,-0.212337,-0.544399,0.770009
2027,-0.093589,-0.561208,0.636571
2028,-0.046503,-0.490121,0.557345
2029,-0.150021,0.072278,-0.35902
2030,-0.5108,1.189059,-1.159477
2031,-0.534316,2.278386,-1.268064
2032,0.331256,0.57139,-0.284363
2033,-0.510144,-0.357529,0.632035
2034,-0.509653,-0.350897,0.639941
2035,-0.614271,0.370959,0.047322
2036,0.214141,0.861276,1.299094
2037,-0.00098,0.7101,1.302442
2038,-0.341978,-0.54663,1.286121
2039,-0.448605,-0.818843,0.469146
2040,0.066424,-0.256145,0.838427
2041,0.46314,0.390719,1.297857
2042,0.26523,0.470368,0.460662
2043,0.185048,0.282865,0.290607
2044,0.082218,0.034776,0.341565
2045,-0.221296,0.109452,0.505264
2046,-0.232558,0.080116,0.438438
2047,-0.124916,-0.044985,0.23977
2048,-0.081852,-0.133692,0.3438
2049,-0.053806,-0.112109,0.346101
2050,-0.096138,-0.209504,0.236927
2051,-0.136993,-0.171416,0.263803
2052,-0.113433,-0.105372,0.196016
2053,0.022828,-0.00426,0.093965
2054,0.100862,0.131894,-0.003667
2055,0.018314,0.187577,-0.110701
2056,0.09901,0.240134,-0.040566
2057,0.174481,0.342186,-0.113449
2058,0.280475,0.321113,-0.041147
2059,0.408075,0.288755,-0.129427
2060,0.413899,0.31492,-0.212682
2061,0.144003,0.401836,-0.117676
2062,0.13591,0.403589,-0.196093
2063,0.128795,0.383108,-0.052175
2064,0.019858,0.181652,0.121625
2065,-0.26096,0.366032,0.598776
2066,-0.357874,0.572222,0.696772
2067,-0.418771,0.775388,0.600065
2068,-0.353292,0.405555,0.286469
2069,-0.455783,0.353437,0.473326
2070,-0.576082,0.411532,0.667548
2071,-0.373818,0.134041,0.782704
2072,-0.080736,-0.109376,0.720885
2073,0.048463,-0.194311,0.670324
2074,0.108973,-0.258245,0.76012
2075,-0.057088,-0.271028,0.822675
2076,-0.170506,-0.314693,0.835568
2077,-0.263317,-0.32198,0.858858
2078,-0.302951,-0.33868,0.905006
2079,-0.304794,-0.366814,0.901783
2080,-0.217202,-0.419191,0.795168
2081,-0.046933,-0.428397,0.660484
2082,0.104718,-0.306998,0.465875
2083,-0.011275,-0.07714,-0.056813
2084,-0.570403,1.102749,-1.107951
2085,-0.414659,1.943646,-1.115185
2086,0.465469,1.519683,-0.453085
2087,-0.089234,0.119723,0.170721
2088,-0.430824,-0.540303,0.508082
2089,-0.54935,-0.506258,0.072356
2090,-0.075034,0.441575,1.702207
2091,-0.22318,1.048579,1.433133
2092,-0.556531,1.833844,0.027314
2093,-0.147302,-1.020561,0.894618
2094,-0.098411,-1.06999,0.763101
2095,0.207616,-0.434056,1.356351
2096,0.361469,1.024189,0.891004
2097,0.322848,1.090202,0.658781
2098,0.182005,0.288624,0.237194
2099,-0.234191,0.006683,0.269386
2100,-0.426681,-0.137878,0.394371
2101,-0.261752,-0.213151,0.35527
2102,-0.181702,-0.219256,0.363175
2103,0.055738,-0.118864,0.321144
2104,0.086964,-0.169445,0.096457
2105,-0.072001,-0.227983,0.215956
2106,-0.065713,-0.190062,0.220108
2107,0.074023,-0.023598,0.068464
2108,0.062428,0.082505,0.020441
2109,-0.183539,0.153852,-0.088894
2110,-0.010112,0.255992,-0.046202
2111,0.219793,0.359571,-0.112084
2112,0.368675,0.425558,-0.060929
2113,0.253077,0.329309,-0.146915
2114,0.092377,0.305076,-0.197581
2115,-0.036727,0.349294,-0.135934
2116,-0.008751,0.517861,-0.193273
2117,0.068479,0.503125,-0.185013
2118,0.135328,0.203336,0.038319
2119,0.022154,0.056587,0.187702
2120,-0.144946,0.228011,0.412097
2121,-0.251538,0.61715,0.604548
2122,-0.290278,0.551831,0.364458
2123,-0.392854,0.326051,0.40358
2124,-0.529768,0.314467,0.649774
2125,-0.490037,0.336015,0.676533
2126,-0.051334,-0.010713,0.649996
2127,0.054956,-0.086058,0.648389
2128,0.188422,-0.203516,0.655427
2129,-0.022828,-0.28417,0.773403
2130,-0.111559,-0.277255,0.78906
2131,-0.22891,-0.277682,0.857771
2132,-0.300156,-0.275319,0.91782
2133,-0.280115,-0.298529,0.913466
2134,-0.249639,-0.378049,0.856113
2135,-0.09643,-0.456499,0.655488
2136,-0.064217,-0.434241,0.568155
2137,0.007133,-0.275403,0.22499
2138,-0.400918,0.343614,-0.715627
2139,-0.489847,0.764057,-0.874516
2140,-0.131837,2.077677,-0.823034
2141,0.116286,0.230183,0.072215
2142,-0.026745,-0.193719,0.237862
2143,-0.394746,-0.804605,-0.109992
2144,-0.503536,-0.400927,-0.047318
2145,-0.437147,0.383105,1.082321
2146,-0.509374,1.979297,0.249695
2147,-0.448777,1.79769,0.161767
2148,-0.172061,-0.837179,1.179726
2149,-0.126213,-0.730692,1.282716
2150,0.149586,0.049056,1.305278
2151,0.243893,0.581836,1.046372
2152,0.402982,0.611245,0.460231
2153,0.310061,0.299326,0.304943
2154,-0.004589,0.006254,0.263247
2155,-0.406218,-0.216757,0.329716
2156,-0.328943,-0.246217,0.333892
2157,-0.224853,-0.244635,0.362475
2158,0.045268,-0.092958,0.339504
2159,0.064046,-0.095388,0.067823
2160,-0.002476,-0.117709,0.064886
2161,-0.115969,-0.120002,0.210195
2162,0.046293,-0.057251,0.119681
2163,0.108056,-0.004418,0.098115
2164,-0.142652,0.117877,-0.147971
2165,0.028011,0.203968,-0.093065
2166,0.18105,0.32345,-0.146833
2167,0.255938,0.300078,-0.114936
2168,0.262779,0.273704,-0.124527
2169,0.13208,0.36288,-0.286124
2170,-0.01863,0.358,-0.133351
2171,0.075029,0.364673,-0.205189
2172,0.178759,0.299337,-0.174471
2173,0.243057,0.172211,0.119368
2174,0.0499,0.301327,0.382629
2175,-0.126083,0.494008,0.638295
2176,-0.476776,0.924433,0.454847
2177,-0.374977,0.414706,0.375294
2178,-0.369311,0.331467,0.465602
2179,-0.452313,0.427226,0.682724
2180,-0.171368,0.004194,0.698777
2181,-0.095029,-0.019324,0.66249
2182,0.081931,-0.213909,0.557122
2183,-0.036233,-0.246854,0.744729
2184,-0.034193,-0.223919,0.779952
2185,-0.164756,-0.286838,0.849818
2186,-0.313325,-0.344659,0.894592
2187,-0.341963,-0.337699,0.923814
2188,-0.372803,-0.337966,0.939162
2189,-0.351277,-0.428637,0.866623
2190,-0.191574,-0.462315,0.69443
2191,0.01746,-0.330311,0.487441
2192,-0.235721,0.197198,-0.484156
2193,-0.400357,0.450768,-0.890288
2194,-0.428672,1.960293,-1.200089
2195,0.388617,0.567216,-0.222364
2196,0.060411,-0.050988,0.059332
2197,-0.389802,-0.842381,0.092728
2198,-0.579941,0.021925,0.241024
2199,-0.279216,0.506003,1.292869
2200,-0.272502,1.588999,0.480687
2201,-0.475489,1.440437,0.145774
2202,-0.293275,-0.597196,1.097737
2203,0.065692,-0.635813,1.32238
2204,0.139896,-0.30621,1.307261
2205,0.223291,0.490336,1.035995
2206,0.262792,0.637512,0.507884
2207,0.039556,0.237367,0.183102
2208,-0.216804,-0.03975,0.272155
2209,-0.327158,-0.136438,0.447089
2210,-0.281573,-0.182903,0.454688
2211,0.015092,-0.142245,0.472172
2212,0.134464,-0.117926,0.282163
2213,0.136565,-0.106989,0.114231
2214,-0.120216,-0.162558,0.225423
2215,-0.007864,-0.026312,0.157074
2216,0.032709,0.016448,0.059501
2217,0.037783,0.049298,-0.004166
2218,-0.189245,0.09623,-0.101811
2219,-0.131007,0.136803,-0.075893
2220,0.221351,0.314194,-0.091098
2221,0.36275,0.220217,-0.007269
2222,0.415249,0.225194,-0.061099
2223,0.402991,0.296943,-0.150831
2224,0.025572,0.315775,-0.248105
2225,0.055921,0.267454,-0.077799
2226,0.125162,0.312395,-0.167744
2227,0.189125,0.151246,0.14336
2228,0.049936,0.148185,0.285534
2229,-0.232113,0.392527,0.47969
2230,-0.460371,0.864636,0.476256
2231,-0.291597,0.591794,0.501226
2232,-0.273876,0.417831,0.466053
2233,-0.530076,0.470685,0.597425
2234,-0.255796,0.04775,0.702708
2235,-0.128795,-0.008033,0.762797
2236,0.015932,-0.126755,0.730865
2237,0.084223,-0.314523,0.624945
2238,-0.026716,-0.297664,0.759395
2239,-0.077516,-0.224724,0.816565
2240,-0.178288,-0.225501,0.865225
2241,-0.297384,-0.24592,0.886518
2242,-0.366478,-0.311823,0.929121
2243,-0.363498,-0.362803,0.928606
2244,-0.24341,-0.43099,0.808067
2245,-0.036768,-0.386724,0.637795
2246,-0.061591,-0.013538,0.04912
2247,-0.232261,0.167018,-0.544908
2248,-0.301761,0.783905,-1.073818
2249,0.231372,2.228237,-0.814964
2250,0.325457,0.87784,-0.245687
2251,-0.132569,-0.280415,0.286658
2252,-0.73441,-0.222282,-0.098412
2253,-0.782034,0.270307,-0.023514
2254,0.009842,1.192519,1.747159
2255,-0.071359,0.900241,1.452025
2256,-0.110175,-0.807317,0.829944
2257,-0.082418,-0.49719,1.190719
2258,0.109733,0.115919,1.407545
2259,0.164295,0.816848,0.821639
2260,0.271671,0.621667,0.495778
2261,0.151734,0.174731,0.451422
2262,-0.149602,-0.037586,0.397211
2263,-0.301225,-0.096133,0.279118
2264,-0.217198,-0.105585,0.345197
2265,-0.124791,-0.083194,0.383951
2266,0.203978,-0.086658,0.393989
2267,0.13868,-0.119567,0.136402
2268,0.004445,-0.112337,0.091405
2269,-0.196634,-0.09452,0.304261
2270,0.004684,-0.06344,0.172405
2271,0.080236,-0.000729,0.105487
2272,-0.036939,0.138133,-0.063661
2273,-0.076403,0.105221,-0.081568
2274,0.054945,0.180447,-0.095663
2275,0.283242,0.338896,-0.102745
2276,0.350767,0.237243,-0.077505
2277,0.336574,0.308534,-0.158611
2278,0.098503,0.382884,-0.279286
2279,-0.00624,0.286312,-0.167879
2280,0.08384,0.298092,-0.248407
2281,0.228752,0.106419,0.008983
2282,0.070306,0.044905,0.13938
2283,-0.158275,0.246006,0.51654
2284,-0.418321,0.815058,0.661131
2285,-0.409566,0.880552,0.309187
2286,-0.349392,0.531804,0.451215
2287,-0.515115,0.543559,0.579095
2288,-0.733751,0.537559,0.650007
2289,-0.372198,0.053129,0.70188
2290,-0.021936,-0.050446,0.764225
2291,0.136029,-0.331397,0.635388
2292,0.044493,-0.287238,0.725358
2293,-0.083432,-0.233672,0.896216
2294,-0.188413,-0.290829,0.945482
2295,-0.214583,-0.317389,0.953673
2296,-0.30702,-0.472814,0.927292
2297,-0.270181,-0.508899,0.884663
2298,-0.15848,-0.529176,0.755483
2299,-0.014671,-0.375888,0.575391
2300,0.017283,-0.215965,0.371645
2301,-0.585167,0.633027,-1.093074
2302,-0.399102,2.395919,-1.162856
2303,0.529337,1.419503,-0.41273
2304,0.19192,0.412707,-0.088344
2305,-0.710136,-0.251567,0.382054
2306,-0.94142,0.413354,-0.242502
2307,-0.106826,1.377607,0.389663
2308,0.398598,0.463486,2.496916
2309,-0.198236,-1.052987,1.61441
2310,-0.519022,-0.84488,0.207093
2311,0.059462,0.086862,1.527794
2312,0.2826,0.861521,1.197809
2313,0.387052,0.796845,0.641774
2314,0.237531,0.290033,0.340501
2315,-0.047549,-0.059236,0.452445
2316,-0.359808,-0.000224,0.418677
2317,-0.210383,0.006375,0.217906
2318,-0.121175,-0.033415,0.228286
2319,-0.025007,-0.04012,0.276057
2320,0.183325,0.033823,0.339636
2321,0.154464,-0.069642,0.138543
2322,-0.003781,-0.114185,0.004343
2323,-0.217406,-0.138798,0.232469
2324,-0.10195,-0.079543,0.231474
2325,0.019572,-0.001825,0.165961
2326,0.069182,0.052609,-0.028703
2327,-0.176644,0.071881,-0.048731
2328,-0.086207,0.227441,0.025243
2329,0.192308,0.327632,-0.059827
2330,0.380614,0.291255,0.077934
2331,0.392496,0.304625,-0.044373
2332,0.11233,0.341218,-0.190186
2333,-0.043942,0.304536,-0.128087
2334,0.012128,0.313698,-0.219073
2335,0.114514,0.337313,-0.1338
2336,0.070841,0.092183,0.135473
2337,0.069844,0.202652,0.405675
2338,-0.117749,0.539493,0.669499
2339,-0.378938,0.774281,0.25719
2340,-0.379088,0.558988,0.360891
2341,-0.624697,0.467721,0.594276
2342,-0.689934,0.499915,0.675781
2343,-0.439519,0.082576,0.758115
2344,0.047605,-0.088415,0.684236
2345,0.121757,-0.169026,0.666961
2346,0.114536,-0.251412,0.716126
2347,-0.138087,-0.161291,0.854454
2348,-0.154854,-0.158544,0.915708
2349,-0.281607,-0.224139,0.918288
2350,-0.358609,-0.277821,0.939057
2351,-0.336603,-0.395903,0.911789
2352,-0.242498,-0.473333,0.858329
2353,-0.076926,-0.487819,0.695771
2354,0.015036,-0.292789,0.448587
2355,-0.114573,0.045588,-0.19437
2356,-0.406435,0.650552,-0.991722
2357,-0.241871,2.244751,-1.036892
2358,0.3092,2.365645,-0.664201
2359,-0.162634,0.007447,0.157901
2360,-0.630813,-0.014083,0.3041
2361,-0.907908,0.336988,0.100189
2362,-0.011563,1.01849,0.289341
2363,0.330139,-0.227442,2.352153
2364,-0.331941,-1.337725,1.439766
2365,-0.43655,-0.948536,0.338114
2366,0.006943,0.424449,1.146116
2367,0.426596,1.229656,1.275548
2368,0.534388,0.799875,0.691632
2369,0.122605,-0.093668,0.349768
2370,-0.052696,-0.153844,0.446857
2371,-0.435662,-0.026613,0.532947
2372,-0.348675,0.004454,0.369114
2373,-0.172446,-0.023915,0.213047
2374,-0.039999,-0.059771,0.412435
2375,0.085866,-0.123727,0.441801
2376,-0.006283,-0.159736,0.133724
2377,-0.237372,-0.147284,0.123659
2378,-0.116813,-0.096465,0.27578
2379,0.019698,-0.050953,0.227048
2380,0.155139,0.035325,0.147017
2381,-0.118977,0.080791,-0.059542
2382,-0.159158,0.112996,0.020117
2383,0.007437,0.339488,-0.114429
2384,0.356356,0.305738,0.04162
2385,0.439054,0.304878,0.025938
2386,0.033254,0.324987,-0.213561
2387,-0.049959,0.303572,-0.153575
2388,-0.034654,0.301494,-0.049698
2389,0.09786,0.403911,-0.087364
2390,-0.02231,0.11148,0.077222
2391,-0.179063,0.075376,0.119164
2392,-0.254973,0.379578,0.627217
2393,-0.316507,0.619412,0.69481
2394,-0.355459,0.755807,0.437164
2395,-0.419263,0.408694,0.462873
2396,-0.528043,0.457578,0.555534
2397,-0.613492,0.508735,0.643646
2398,-0.124667,0.059221,0.783631
2399,-0.031976,-0.036912,0.76049
2400,0.113974,-0.205905,0.666186
2401,-0.098023,-0.208974,0.812104
2402,-0.131004,-0.205756,0.839634
2403,-0.224796,-0.23552,0.842139
2404,-0.324242,-0.279114,0.880336
2405,-0.348591,-0.331891,0.936817
2406,-0.335581,-0.397901,0.900783
2407,-0.215579,-0.376709,0.770196
2408,-0.085625,-0.353142,0.591677
2409,-0.040764,-0.18233,0.312928
2410,-0.307707,0.142436,-0.291219
2411,-0.475877,1.783608,-1.007795
2412,0.032647,2.362007,-0.836592
2413,0.351639,0.87075,-0.157579
2414,-0.151041,-0.339186,0.339957
2415,-0.377306,-0.651942,0.345596
2416,-0.567204,-0.084731,0.094764
2417,-0.060238,1.060043,1.618338
2418,-0.046077,1.245858,1.355956
2419,-0.481134,0.720544,0.591787
2420,-0.292617,-0.817806,1.087221
2421,-0.287657,-0.795994,0.789638
2422,0.049535,-0.162172,1.159532
2423,0.476081,1.001175,1.052506
2424,0.422106,0.884448,0.769024
2425,0.162819,0.282818,0.33936
2426,-0.13294,0.004047,0.279624
2427,-0.576189,-0.062554,0.375543
2428,-0.524129,-0.059482,0.492643
2429,-0.270688,-0.087578,0.437273
2430,-0.092666,-0.004994,0.477958
2431,0.035749,-0.036898,0.311549
2432,-0.058158,-0.097659,0.277732
2433,-0.186578,-0.180065,0.301797
2434,0.014154,-0.090522,0.155092
2435,0.044414,-0.059108,0.11524
2436,0.034289,-0.020018,0.052822
2437,-0.086106,0.064254,-0.078404
2438,0.016639,0.150378,-0.032417
2439,0.113773,0.319015,-0.118365
2440,-0.016132,0.248105,-0.044382
2441,-0.001794,0.26631,-0.074958
2442,0.079436,0.316219,-0.108128
2443,-0.066412,0.289632,-0.26433
2444,-0.226131,0.181481,-0.222715
2445,-0.087898,0.285188,-0.297324
2446,0.147185,0.220014,-0.163746
2447,0.276141,0.031112,0.198996
2448,0.123528,0.152159,0.217238
2449,-0.184886,0.448037,0.248086
2450,-0.506843,0.755421,0.450537
2451,-0.541826,0.497186,0.51206
2452,-0.472908,0.274711,0.541378
2453,-0.566116,0.259161,0.54102
2454,-0.473116,0.241612,0.495677
2455,-0.17081,0.126284,0.591959
2456,0.028865,-0.033751,0.663701
2457,0.005589,-0.04416,0.67276
2458,-0.112557,-0.063539,0.767399
