,userAcceleration.x,userAcceleration.y,userAcceleration.z
0,0.576995,0.25814,-0.311429
1,0.590547,0.254514,-0.315076
2,0.710239,0.058018,-0.077687
3,0.711626,-0.052739,-0.151148
4,0.7054,-0.052199,-0.144882
5,0.660534,0.276264,0.010397
6,-0.142554,0.580451,-0.39813
7,-0.321255,0.441251,-0.229576
8,-0.381351,0.190581,0.412833
9,-0.336975,0.788508,0.163373
10,-0.313083,1.003295,0.283209
11,-0.279581,1.118771,0.363771
12,-0.300699,0.244366,0.289627
13,-0.188199,-0.000941,0.374629
14,-0.068238,-0.069889,0.322945
15,0.413279,-0.214684,0.49671
16,0.250721,-0.300963,0.531331
17,-0.324987,-0.549246,0.641087
18,-0.358975,-0.624391,0.712879
19,-0.292095,-0.672687,0.713252
20,-0.307069,-0.435237,0.746492
21,-0.434158,-0.381704,0.750351
22,-0.478066,-0.406533,0.664643
23,-0.38358,-0.395205,0.184679
24,-0.296328,-0.312982,0.036432
25,-0.187415,-0.133026,-0.370867
26,0.85232,1.319393,-1.488338
27,1.111742,1.512395,-1.290462
28,0.654965,0.575323,-0.32532
29,-0.41858,-0.034645,-0.769881
30,-0.260365,0.639821,0.354626
31,0.085606,0.854993,1.675962
32,-0.579431,0.161088,0.896931
33,-1.16101,-1.061806,0.702183
34,-0.417183,-0.446874,1.111184
35,-0.079457,0.253823,1.34865
36,0.26243,0.342577,0.943525
37,0.603103,0.367147,0.684202
38,0.7475,0.454113,0.100721
39,0.422102,-0.071085,0.137149
40,0.014922,-0.060417,0.160453
41,0.008235,-0.131239,0.156764
42,-0.094382,-0.259028,-0.16753
43,-0.138339,-0.288224,-0.229001
44,-0.181847,-0.380924,0.054546
45,-0.023414,-0.308933,0.11112
46,-0.083012,-0.081258,-0.401874
47,0.058175,-0.096362,-0.473865
48,0.131886,-0.084116,-0.023031
49,0.023379,-0.014302,-0.14271
50,0.072246,0.066793,-0.278962
51,0.350981,0.082375,-0.279672
52,0.531505,0.145454,-0.256138
53,0.641727,0.164381,-0.19553
54,0.673683,-0.022081,-0.119907
55,0.66373,-3.10E-05,-0.152018
56,0.630766,0.087045,-0.21688
57,0.78669,0.192217,0.125629
58,0.554426,0.374808,0.1135
59,-0.417162,0.538438,-0.194717
60,-0.402509,0.334429,0.40386
61,-0.369527,0.803964,0.139573
62,-0.347658,1.169346,0.252708
63,-0.344466,0.834411,0.295125
64,-0.277311,0.523646,0.351115
65,0.228247,0.112913,0.242863
66,0.400076,-0.021694,0.469755
67,0.529086,-0.118422,0.545543
68,-0.240702,-0.520774,0.652455
69,-0.32429,-0.530108,0.718011
70,-0.302494,-0.558106,0.730891
71,-0.274011,-0.674545,0.755381
72,-0.251131,-0.478083,0.811605
73,-0.332363,-0.40766,0.749075
74,-0.459622,-0.382641,0.612411
75,-0.436477,-0.433841,0.368391
76,-0.409323,-0.39011,0.18266
77,-0.057967,0.290243,-1.116401
78,0.847088,1.356093,-1.471728
79,1.145069,2.209897,-1.854138
80,0.04966,-0.052167,-0.177515
81,-0.49879,-0.109014,-0.506515
82,-0.585276,0.17505,-0.182517
83,0.424848,0.80866,1.168922
84,-0.691327,-0.493706,1.251289
85,-0.673749,-0.48982,1.274038
86,-0.101349,-0.042527,1.247574
87,-0.137787,0.101218,1.220337
88,-0.078876,0.114258,1.165221
89,0.74555,0.556195,0.667638
90,0.757221,0.544888,-0.033905
91,0.691081,0.180784,-0.156706
92,0.003041,0.005832,0.128143
93,-0.039686,-0.14868,0.276611
94,-0.068674,-0.17548,0.190888
95,-0.156581,-0.334732,-0.163678
96,-0.226892,-0.362771,-0.079275
97,-0.109212,-0.322998,-0.017237
98,-0.061247,-0.100336,-0.419988
99,0.106826,-0.032638,-0.402485
100,0.11529,0.025263,-0.017874
101,-0.025012,-0.082376,-0.119063
102,0.108839,-0.034786,-0.25778
103,0.233941,0.102359,-0.402714
104,0.395472,0.167985,-0.196726
105,0.653704,0.103423,-0.305953
106,0.605568,0.097291,-0.258311
107,0.635614,-0.132994,-0.095603
108,0.512526,0.072921,-0.286485
109,0.505531,0.072026,-0.134243
110,0.219636,0.458565,-0.295317
111,-0.120211,0.462313,0.077171
112,-0.209567,0.271726,0.385533
113,-0.316641,0.613989,0.158795
114,-0.277164,1.014605,0.194573
115,-0.306126,1.138805,0.297228
116,-0.371306,0.638415,0.296269
117,-0.20772,0.076459,0.338154
118,-0.104376,0.019115,0.438192
119,0.435193,-0.189699,0.262682
120,0.265905,-0.389938,0.625703
121,0.067619,-0.445875,0.787012
122,-0.312823,-0.557425,0.727959
123,-0.383641,-0.677822,0.741293
124,-0.225558,-0.544553,0.788671
125,-0.31516,-0.430169,0.736042
126,-0.356126,-0.452076,0.652476
127,-0.444106,-0.483878,0.555802
128,-0.364698,-0.4385,0.085314
129,-0.086355,0.094638,-0.842614
130,0.180246,0.522967,-1.328723
131,0.87311,1.862023,-1.471961
132,0.102974,0.014153,-0.298352
133,-0.370352,-0.533731,-0.470472
134,-0.43034,-0.00744,0.562217
135,-0.08598,0.652739,1.583526
136,0.532233,2.802116,-0.727705
137,-0.566373,-0.758013,1.73163
138,-0.715705,-1.357138,0.632152
139,0.075253,-0.152259,1.216084
140,0.005888,0.262223,1.229586
141,0.747639,0.768082,0.410146
142,0.880766,0.678925,0.157508
143,0.701084,0.186113,0.081322
144,-0.057394,-0.132169,0.205055
145,-0.109866,-0.214853,0.222741
146,-0.208561,-0.220779,0.001126
147,-0.151704,-0.322179,-0.006833
148,-0.150324,-0.323557,-0.030056
149,0.008447,-0.416697,0.004303
150,-0.134299,0.043295,-0.719473
151,-0.062685,0.049354,-0.358817
152,0.009613,-0.011501,-0.075628
153,0.063465,-0.050173,-0.220334
154,0.208127,0.04829,-0.164068
155,0.403296,0.150002,-0.397223
156,0.456051,0.171866,-0.413753
157,0.632004,0.093832,-0.209449
158,0.620055,-0.100448,-0.09476
159,0.630352,-0.130601,-0.164364
160,0.634431,-0.129126,-0.249629
161,0.729834,0.053293,0.094703
162,0.405163,0.288999,0.104501
163,-0.023357,0.444376,-0.142282
164,-0.414916,0.531006,0.381798
165,-0.380525,0.77769,0.227723
166,-0.365999,1.00925,0.198744
167,-0.402972,1.288106,0.391322
168,-0.366158,0.50543,0.336568
169,-0.288892,0.212184,0.319874
170,0.317033,-0.093421,0.289101
171,0.644805,-0.127632,0.35271
172,0.523007,-0.188262,0.523551
173,-0.05205,-0.526758,0.824114
174,-0.361525,-0.761231,0.806049
175,-0.327003,-0.749886,0.840189
176,-0.328938,-0.527671,0.781007
177,-0.296843,-0.37531,0.807166
178,-0.326235,-0.341899,0.709358
179,-0.332566,-0.399569,0.508439
180,-0.347881,-0.454017,0.130152
181,-0.261829,-0.26211,-0.328883
182,-0.100574,0.362971,-1.118901
183,0.849985,1.562185,-1.450929
184,0.848387,1.48177,-0.657056
185,-0.001446,0.033015,-0.376898
186,-0.418942,0.27068,-0.541321
187,-0.04293,1.110802,0.517892
188,0.487863,0.884057,0.901627
189,-1.19087,-1.143771,0.717282
190,-1.261466,-1.189857,0.187043
191,-0.209251,-0.052219,1.33962
192,-0.097212,0.229332,0.921704
193,0.106087,0.38263,0.809873
194,0.930744,0.533338,0.760091
195,0.94367,0.182838,-0.067075
196,0.65778,-0.069411,-0.2466
197,-0.017326,-0.328111,0.045222
198,-0.244729,-0.27567,0.146763
199,-0.38011,-0.268984,0.080216
200,-0.37388,-0.125359,0.028214
201,-0.206632,-0.142998,-0.192526
202,-0.055611,-0.150051,-0.300688
203,0.103599,-0.115965,-0.071874
204,0.046273,-0.115838,0.001666
205,-0.019344,-0.064262,-0.009346
206,0.005576,0.103629,-0.136602
207,0.238909,0.181871,-0.323893
208,0.364254,0.06262,-0.336539
209,0.708391,0.108109,-0.218494
210,0.662819,0.016922,-0.165217
211,0.633367,-0.030608,-0.106108
212,0.561552,-0.05259,-0.309672
213,0.305005,0.053669,-0.32474
214,0.407545,0.170661,0.03521
215,0.234513,0.237511,0.079534
216,-0.135899,0.429821,0.158631
217,-0.209553,0.555949,0.532291
218,-0.193734,0.796247,0.259259
219,-0.185336,1.269182,0.258151
220,-0.214256,1.440957,0.334347
221,-0.297313,0.411116,0.20388
222,-0.31454,0.014491,0.318265
223,0.178855,-0.196885,0.468733
224,0.566792,-0.197939,0.457117
225,0.330145,-0.448721,0.683001
226,-0.085339,-0.63583,0.820354
227,-0.357789,-0.771487,0.83446
228,-0.426499,-0.661588,0.82285
229,-0.353838,-0.467308,0.802117
230,-0.312526,-0.33549,0.792595
231,-0.38362,-0.291503,0.618017
232,-0.422032,-0.327783,0.491844
233,-0.354773,-0.368466,0.166075
234,-0.028888,0.3651,-1.26708
235,0.475212,0.755772,-1.411082
236,1.255329,2.40926,-1.834267
237,-0.016758,-0.256949,-0.376565
238,-0.276591,-0.523149,-0.488354
239,-0.862841,-0.049902,0.236415
240,0.142552,1.051908,1.071823
241,0.440538,1.669172,0.713161
242,-0.81891,-0.964609,1.446094
243,-0.91384,-1.287024,0.949553
244,-0.323335,-0.480443,1.100877
245,-0.070248,0.30656,0.964557
246,0.204977,0.461258,0.856073
247,0.92616,0.700558,0.386435
248,0.717149,0.149243,0.099215
249,0.234565,-0.122416,-0.03422
250,0.01646,-0.18511,-0.06325
251,-0.166423,-0.395439,0.35479
252,-0.338234,-0.274135,0.075978
253,-0.334525,-0.310725,0.107937
254,-0.051475,-0.055674,-0.362849
255,-0.010406,0.072484,-0.763798
256,0.087743,0.023413,-0.299301
257,0.067359,-0.097885,-0.095364
258,-0.026279,-0.086766,-0.164016
259,0.034779,-0.098247,-0.124929
260,0.254987,0.008346,-0.2253
261,0.501174,0.137757,-0.310853
262,0.563008,0.17259,-0.279131
263,0.541076,0.059296,-0.057714
264,0.6612,-0.098419,-0.144778
265,0.657668,-0.097454,-0.142828
266,0.798808,0.101916,0.221504
267,0.672775,0.160488,0.264446
268,-0.116391,0.630898,-0.062904
269,-0.666883,0.638985,0.226508
270,-0.565711,0.476391,0.419194
271,-0.272515,0.64897,0.123997
272,-0.144595,1.041817,0.18945
273,0.038165,1.168174,0.467756
274,-0.081786,0.325972,0.130774
275,0.005239,0.043076,0.360863
276,0.2621,-0.17516,0.481041
277,0.299804,-0.119124,0.522411
278,0.022072,-0.23299,0.602269
279,-0.178214,-0.439892,0.758608
280,-0.241811,-0.657701,0.864881
281,-0.310401,-0.805311,0.819976
282,-0.315242,-0.523878,0.802046
283,-0.324678,-0.409092,0.793158
284,-0.384458,-0.357385,0.673733
285,-0.38163,-0.292148,0.310292
286,-0.375578,-0.273017,0.129969
287,-0.195392,0.022521,-0.803631
288,0.937566,1.572875,-1.433556
289,1.100759,2.021272,-1.639371
290,0.371481,0.347175,-0.400906
291,-0.460144,-0.507704,-0.498221
292,-0.509446,-0.302104,-0.249761
293,-0.17595,-0.000904,0.96653
294,0.618756,2.506678,-0.659036
295,0.075776,1.740844,0.838825
296,-1.158637,-1.138372,0.691596
297,-0.938977,-0.983141,0.594238
298,-0.410395,0.033626,1.248374
299,0.03776,0.463443,0.82194
300,0.283223,0.537461,0.835241
301,0.900249,0.635594,0.447659
302,0.977119,-0.051202,0.112527
303,0.273992,-0.451618,-0.27144
304,-0.031112,-0.441926,-0.25657
305,-0.318217,-0.382497,0.142473
306,-0.251021,-0.281747,0.133601
307,-0.20331,-0.111928,-0.061069
308,-0.121195,0.095321,-0.569276
309,0.087524,0.002637,-0.349662
310,0.149947,-0.133013,-0.072063
311,0.083485,-0.143999,-0.039018
312,-0.013095,-0.083263,0.020496
313,0.033694,0.012553,-0.079968
314,0.246948,0.096424,-0.343923
315,0.563654,0.124808,-0.165031
316,0.647342,0.070354,-0.13498
317,0.624436,-0.089983,-0.057797
318,0.556802,0.039303,-0.331448
319,0.546637,0.04325,-0.330237
320,0.423241,0.270926,0.03898
321,0.271519,0.260749,-0.110979
322,0.08017,0.326382,0.040411
323,-0.138532,0.553885,0.559215
324,-0.219729,0.609701,0.37701
325,-0.070544,0.81338,0.215536
326,-0.094913,0.988164,0.367217
327,-0.016729,1.137611,0.357951
328,-0.218645,0.246357,0.184857
329,-0.246983,-0.030585,0.455052
330,0.042865,-0.144749,0.580954
331,0.128698,-0.143398,0.609946
332,0.110796,-0.305327,0.719993
333,-0.129009,-0.74897,0.855939
334,-0.256753,-0.858378,0.875354
335,-0.380998,-0.734822,0.868474
336,-0.420026,-0.4745,0.827859
337,-0.42762,-0.448277,0.756366
338,-0.50434,-0.355893,0.495499
339,-0.286668,-0.255314,0.198418
340,-0.194238,-0.073938,-0.369701
341,0.943705,1.650911,-1.66852
342,0.86987,1.454613,-1.23353
343,0.031213,-0.292916,-0.272165
344,-0.428216,-0.545719,-0.655829
345,-0.357845,0.061604,-0.183137
346,0.445132,1.206484,1.440929
347,0.065301,1.048262,0.523996
348,-1.273248,-1.167648,1.293195
349,-0.79279,-0.883333,0.605371
350,-0.161025,0.184911,1.454135
351,-0.012273,0.499115,0.932409
352,0.511825,0.516508,0.626744
353,1.216678,0.612595,0.211727
354,0.374711,-0.060728,0.124069
355,0.131795,-0.168517,0.155888
356,-0.000119,-0.214654,0.047371
357,-0.076758,-0.202141,-0.059079
358,-0.145396,-0.21471,-0.08428
359,-0.152251,-0.29359,0.066074
360,-0.099481,-0.31125,0.124956
361,-0.220397,-0.242898,-0.348651
362,-0.12715,0.002033,-0.446242
363,0.136885,-0.163717,0.076653
364,0.037099,-0.049301,-0.060075
365,0.031058,0.006639,-0.206021
366,0.206703,0.172241,-0.349164
367,0.226272,0.167254,-0.365967
368,0.741725,-0.020236,-0.239174
369,0.689257,-0.030741,0.034687
370,0.674515,-0.157737,-0.073858
371,0.529066,-0.047362,-0.264353
372,0.382467,0.245654,-0.124362
373,0.36953,0.228715,0.101264
374,-0.055273,0.386527,0.14482
375,-0.28211,0.639749,0.208466
376,-0.14133,0.64401,0.184374
377,-0.044485,0.741651,0.342869
378,-0.034797,1.265988,0.430236
379,-0.050461,1.039087,0.371201
380,-0.167429,0.284914,0.327065
381,-0.159237,-0.109244,0.45814
382,0.025084,-0.138624,0.532326
383,0.214211,-0.178118,0.512827
384,0.033657,-0.329983,0.677367
385,-0.220769,-0.607848,0.848245
386,-0.371622,-0.861014,0.904001
387,-0.38734,-0.9224,0.890915
388,-0.427973,-0.403835,0.858847
389,-0.453393,-0.290358,0.789772
390,-0.51502,-0.22924,0.562982
391,-0.41368,-0.284147,0.288445
392,-0.192277,-0.069094,-0.250296
393,0.296099,0.739576,-1.305882
394,0.950602,1.690697,-1.48405
395,0.378908,0.041423,-0.32221
396,0.119684,-0.229523,-0.281647
397,-0.044054,-0.472166,-0.508345
398,-0.201741,0.152209,0.730364
399,0.120988,0.906171,1.238646
400,0.256975,2.058766,-0.116404
401,-0.979302,-0.77436,1.272427
402,-0.847649,-1.027348,0.749492
403,-0.159127,0.006575,1.398651
404,-0.085278,0.267191,1.069565
405,0.737985,0.519849,0.76934
406,1.131498,0.790613,0.332563
407,0.586321,0.200041,0.034348
408,0.130522,-0.104073,0.067553
409,0.04114,-0.204984,0.165974
410,-0.168157,-0.260284,0.009405
411,-0.438558,-0.25527,-0.132735
412,-0.296711,-0.291456,0.024255
413,-0.085238,-0.271863,0.052222
414,-0.018235,-0.021856,-0.297715
415,0.085114,-0.118545,-0.47588
416,0.193911,-0.082585,-0.164891
417,0.020297,-0.130657,-0.138878
418,0.009706,-0.029617,-0.107147
419,-0.00261,0.052784,-0.318909
420,0.540248,0.144141,-0.244174
421,0.781194,0.012469,-0.173063
422,0.812158,-0.126572,-0.036894
423,0.659938,0.031321,-0.087118
424,0.607622,0.076105,-0.122707
425,0.4986,0.179581,-0.100904
426,0.271421,0.441854,0.026219
427,-0.081343,0.502592,-0.058051
428,-0.480953,0.488026,0.125572
429,-0.302078,0.478408,0.314227
430,-0.142985,0.956217,0.316084
431,-0.127546,1.136834,0.403995
432,-0.084055,0.801609,0.482881
433,-0.059086,0.443739,0.451695
434,-0.023941,-0.085113,0.315784
435,0.314642,-0.189687,0.441898
436,0.42042,-0.152942,0.467321
437,0.035945,-0.299138,0.717434
438,-0.214139,-0.460229,0.856447
439,-0.248472,-0.580492,0.897578
440,-0.363716,-0.764843,0.787181
441,-0.343396,-0.524159,0.834648
442,-0.330245,-0.448129,0.831954
443,-0.416375,-0.370075,0.639799
444,-0.372179,-0.393194,0.377018
445,-0.317058,-0.358089,0.220506
446,0.0151,0.373385,-1.19971
447,0.933456,1.599304,-1.404433
448,0.781541,1.524196,-0.968128
449,0.060206,-0.061341,-0.284625
450,-0.420532,-0.618262,-0.539796
451,-0.378747,-0.254043,0.572603
452,-0.070568,0.094836,1.668668
453,0.612608,2.528487,-1.176404
454,0.625277,2.745194,-0.137935
455,-0.977594,-1.134112,0.956098
456,-0.572053,-0.913479,0.86844
457,-0.354324,-0.306635,1.096566
458,-0.007909,0.345089,0.802678
459,0.615205,0.480713,0.872796
460,1.017564,0.557772,0.782201
461,0.843035,0.080084,-0.379616
462,0.117712,-0.1723,-0.03449
463,-0.295384,-0.219636,0.028995
464,-0.515764,-0.177208,0.05641
465,-0.239893,-0.161866,0.084832
466,-0.077063,-0.156517,0.008022
467,0.069617,-0.201554,-0.195916
468,0.112809,-0.101277,-0.223039
469,0.116654,-0.102335,-0.254643
470,0.036595,-0.09929,-0.097693
471,-0.069757,0.072712,-0.103088
472,-0.053373,0.06813,-0.133263
473,0.11877,0.122181,-0.407832
474,0.701322,-0.020106,-0.131018
475,0.700486,-0.065204,-0.106514
476,0.640978,-0.190045,-0.024373
477,0.548694,0.009523,-0.13726
478,0.310942,0.258932,-0.441457
479,0.458741,0.343796,0.16914
480,-0.131696,0.499402,0.028584
481,-0.26512,0.515302,0.196797
482,-0.248545,0.448243,0.419691
483,-0.170715,1.175217,0.075443
484,-0.189647,1.306424,0.224828
485,-0.265103,1.193437,0.493759
486,-0.403479,0.27609,0.190696
487,-0.342751,0.098758,0.373696
488,-0.10275,-0.140256,0.368378
489,0.352594,-0.205475,0.605218
490,0.362104,-0.273251,0.709397
491,-0.31866,-0.781197,0.781893
492,-0.386954,-0.782343,0.800354
493,-0.356796,-0.771975,0.829845
494,-0.383476,-0.450229,0.859024
495,-0.397376,-0.373159,0.831199
496,-0.433674,-0.24189,0.641055
497,-0.352808,-0.333125,0.396027
498,-0.29712,-0.357937,0.201239
499,0.217829,0.527243,-1.344906
500,1.193863,2.123127,-1.824335
501,0.473943,1.011782,-0.621983
502,-0.210849,-0.37341,-0.403905
503,-0.678236,-0.48376,0.336668
504,-0.381502,-0.224142,1.419806
505,-0.265562,-0.229657,1.668261
506,0.778084,3.34227,-1.681262
507,-0.526136,-0.022817,1.923402
508,-0.805262,-0.974472,1.511767
509,-0.084857,-0.507041,1.151142
510,0.048961,0.243599,1.249696
511,0.309944,0.462018,1.009135
512,0.964485,0.625794,0.071897
513,0.248233,0.156905,0.251887
514,-0.097417,-0.069158,0.21788
515,-0.145327,-0.069213,0.155724
516,-0.101844,-0.207535,-0.001341
517,-0.138482,-0.196382,-0.01741
518,-0.11155,-0.104394,0.159046
519,-0.058097,-0.244506,0.111855
520,-0.054618,-0.276562,-0.170067
521,-0.010342,-0.074166,-0.707407
522,0.164457,-0.099774,-0.242209
523,0.128964,-0.152876,0.066676
524,-0.028366,-0.051302,-0.110628
525,0.097189,0.018008,-0.225031
526,0.284862,0.072084,-0.366858
527,0.442314,0.150905,-0.172385
528,0.453817,0.059817,-0.126178
529,0.512076,0.006972,-0.074001
530,0.605602,-0.022373,-0.138395
531,0.655466,0.233055,-0.18451
532,0.576947,0.15263,0.088882
533,0.23424,0.212422,-0.111964
534,-0.240655,0.413572,0.088975
535,-0.27188,0.392905,0.320202
536,-0.159005,0.545064,0.44553
537,-0.027759,1.162419,0.301726
538,-0.095208,0.963774,0.421801
539,-0.238722,0.478217,0.264732
540,-0.231589,0.182849,0.212104
541,-0.01992,-0.00805,0.334142
542,0.36845,-0.045593,0.45019
543,0.300196,-0.154555,0.615249
544,-0.113344,-0.485428,0.830155
545,-0.25697,-0.646282,0.89586
546,-0.385374,-0.748618,0.824239
547,-0.343325,-0.571606,0.830605
548,-0.354051,-0.374343,0.849949
549,-0.440224,-0.331563,0.751422
550,-0.486286,-0.330038,0.63264
551,-0.353194,-0.333098,0.207734
552,-0.165164,-0.066718,-0.775199
553,0.004255,0.344153,-1.258781
554,1.070972,2.103006,-1.562536
555,0.440086,0.466007,-0.406075
556,0.154206,-0.101614,-0.196915
557,-0.374418,-0.080706,-0.379531
558,0.168962,0.760339,1.309607
559,0.526993,1.096341,1.383036
560,-0.651592,-0.265306,1.358833
561,-1.188682,-1.354959,0.658869
562,-1.05678,-1.026076,0.423144
563,-0.196186,0.305642,1.319596
564,0.059916,0.483195,0.935822
565,0.425554,0.607604,0.745919
566,1.23371,0.641317,0.193633
567,0.461855,-0.038895,0.079247
568,0.016344,-0.213247,0.161912
569,-0.213405,-0.282192,0.203758
570,-0.367113,-0.229817,0.051376
571,-0.242001,-0.255546,0.087126
572,-0.091374,-0.278265,0.22704
573,-0.192405,-0.092153,-0.586902
574,-0.203187,-0.04789,-0.665157
575,0.103981,-0.060729,-0.023154
576,-0.01694,0.024208,-0.103096
577,0.003927,0.054725,-0.233391
578,0.14454,0.017778,-0.178591
579,0.582408,0.129625,-0.14869
580,0.60883,0.144011,-0.23933
581,0.562528,-0.028808,-0.034205
582,0.579754,-0.044807,-0.168771
583,0.540853,-0.091461,-0.329682
584,0.379626,0.003307,-0.325983
585,0.39489,0.075596,-0.094974
586,0.201028,0.130053,0.035438
587,0.038153,0.626408,0.369892
588,-0.093987,0.632257,0.438053
589,-0.093399,0.975943,0.197828
590,-0.058882,1.362847,0.237805
591,-0.101454,0.835069,0.329274
592,-0.112858,0.21503,0.150711
593,-0.124162,0.016979,0.372409
594,0.200905,-0.207641,0.412965
595,0.303236,-0.212038,0.54554
596,0.128775,-0.247277,0.783605
597,-0.08242,-0.405792,0.878491
598,-0.31091,-0.592386,0.863872
599,-0.415995,-0.721744,0.864091
600,-0.35852,-0.458469,0.877057
601,-0.309863,-0.337905,0.816969
602,-0.406111,-0.294888,0.642492
603,-0.384127,-0.305612,0.533414
604,-0.363736,-0.327121,0.350816
605,-0.170229,0.120253,-0.680886
606,0.468495,0.889938,-1.329055
607,1.23089,2.066034,-1.868781
608,0.039533,-0.216769,-0.239221
609,-0.240923,-0.522095,-0.514383
610,-0.556485,-0.312939,0.23131
611,-0.185352,0.294275,1.888425
612,0.419493,2.768674,-0.294751
613,0.475316,2.773118,-0.238188
614,-0.633048,-1.145797,0.926076
615,-0.244497,-0.059578,1.35741
616,-0.269234,-0.070603,1.318305
617,0.222675,0.41852,0.958143
618,1.029916,0.747501,0.143468
619,0.818509,0.235586,0.042051
620,0.29495,-0.164491,-0.06693
621,-0.158589,-0.230833,0.11787
622,-0.240904,-0.235156,0.05055
623,-0.29135,-0.203757,-0.059972
624,0.058196,-0.242456,0.162539
625,0.159921,-0.2324,0.074992
626,0.013091,-0.093021,-0.180714
627,0.09794,-0.020147,-0.171018
628,0.117432,-0.031752,-0.091732
629,-0.038779,-0.078383,-0.051545
630,-0.074463,-0.008605,-0.081931
631,-0.000612,0.086973,-0.377615
632,0.518344,-0.031133,-0.22401
633,0.68835,-0.113589,-0.138158
634,0.606544,-0.15636,-0.079672
635,0.608331,-0.090531,-0.199416
636,0.70702,0.077833,-0.222937
637,0.65756,0.265883,0.200936
638,-0.015318,0.573628,-0.044655
639,-0.694136,0.749347,0.204855
640,-0.530334,0.645445,0.414838
641,-0.089051,0.762876,0.120757
642,-0.016933,1.024527,0.254535
643,0.030957,1.246216,0.466881
644,-0.14568,0.416808,0.147964
645,-0.103728,0.004234,0.275099
646,0.114956,-0.151149,0.445775
647,0.250535,-0.239139,0.607561
648,0.129854,-0.282296,0.584317
649,-0.105169,-0.326465,0.767884
650,-0.273669,-0.564117,0.85284
651,-0.379548,-0.676573,0.822445
652,-0.297602,-0.555862,0.820459
653,-0.281672,-0.415933,0.855563
654,-0.451914,-0.373573,0.668459
655,-0.463446,-0.369193,0.596202
656,-0.38407,-0.378394,0.29684
657,-0.18153,0.309076,-1.169779
658,-0.003596,0.690641,-1.048027
659,1.06177,2.181609,-1.862798
660,0.061791,-0.049407,-0.180686
661,-0.232869,-0.371536,-0.328771
662,-0.48115,0.020173,-0.474906
663,0.643874,1.264769,1.636741
664,0.794806,2.029346,-0.229429
665,-0.552612,-0.590076,1.544034
666,-0.75528,-1.014816,0.515693
667,-0.153144,-0.14166,1.506479
668,-0.090815,0.509961,1.344642
669,1.112004,0.860182,0.497767
670,1.1709,0.980154,0.222447
671,-0.016569,-0.036935,0.327251
672,-0.009684,-0.09644,0.340428
673,-0.030883,-0.150678,0.354211
674,-0.177387,-0.212707,0.069642
675,-0.249749,-0.215609,-0.009418
676,-0.314391,-0.254166,-0.018273
677,-0.137942,-0.341154,-0.057948
678,-0.079104,-0.199259,-0.315485
679,0.040475,-0.071476,-0.551612
680,0.296887,-0.169201,-0.138292
681,0.160146,-0.196564,-0.063
682,0.148646,-0.095175,-0.091133
683,0.15362,0.106026,-0.437255
684,0.460011,0.138432,-0.386676
685,0.568644,0.094713,-0.27234
686,0.616542,-0.090834,0.030843
687,0.664678,-0.117078,-0.249659
688,0.83978,0.151904,-0.053867
689,0.807837,0.287444,0.396049
690,0.091625,0.609756,0.12452
691,-0.533214,0.764556,-0.07155
692,-0.507493,0.577474,0.514934
693,-0.226592,0.784875,0.283822
694,-0.049175,1.031827,0.365534
695,0.055996,0.968651,0.516625
696,0.11354,0.248257,0.35276
697,0.006917,-0.140483,0.418159
698,0.265326,-0.275327,0.50834
699,0.249727,-0.1127,0.483567
700,-0.126578,-0.082627,0.612044
701,-0.295043,-0.258916,0.795828
702,-0.306414,-0.625254,0.885252
703,-0.28885,-0.741957,0.919965
704,-0.321533,-0.774754,0.821361
705,-0.307926,-0.59071,0.770482
706,-0.308309,-0.589543,0.711
707,-0.284411,-0.452314,0.482123
708,-0.130079,0.464447,-1.210323
709,0.177398,0.994938,-1.203906
710,0.548271,1.938896,-1.500746
711,0.17317,0.083138,-0.171279
712,0.077081,-0.222385,-0.097
713,-0.329261,-0.336999,-0.536145
714,0.352369,0.601746,1.337801
715,0.588799,1.11645,0.977048
716,-0.192366,-0.415529,1.985902
717,-0.376105,-1.013784,1.5377
718,-0.334218,-0.800289,0.617231
719,0.165486,-0.010061,1.204148
720,0.261581,0.21313,1.056181
721,0.839024,1.113329,0.658992
722,0.585176,0.094733,0.105125
723,-0.023455,-0.108072,0.196142
724,-0.161588,-0.114795,0.13224
725,-0.272836,-0.130176,0.048747
726,-0.361476,-0.110675,-0.007928
727,-0.244818,-0.257165,0.109905
728,-0.134545,-0.300731,0.212464
729,-0.154529,-0.287578,-0.119291
730,-0.134935,-0.205858,-0.40453
731,0.037515,-0.139907,0.02248
732,0.10957,-0.050084,-0.095477
733,0.205729,0.031364,-0.277337
734,0.314683,0.146442,-0.238246
735,0.532791,0.107043,-0.179646
736,0.576348,0.05176,-0.1122
737,0.62898,0.117345,-0.023871
738,0.448985,0.138566,-0.159424
739,0.408505,0.246592,-0.087108
740,0.514008,0.286534,0.166879
741,0.11386,0.485422,-0.099564
742,-0.416934,0.511458,0.164854
743,-0.349767,0.313179,0.236396
744,-0.116268,0.528269,0.284283
745,-0.124591,1.029101,0.375995
746,-0.195103,1.208151,0.358948
747,-0.195644,0.775251,0.489035
748,-0.274285,-0.056669,0.428276
749,-0.037957,-0.190038,0.497784
750,0.221639,-0.280522,0.608593
751,0.180891,-0.216993,0.638304
752,-0.096208,-0.219897,0.734271
753,-0.177173,-0.484347,0.801635
754,-0.251577,-0.555496,0.794187
755,-0.198907,-0.65831,0.739573
756,-0.280581,-0.423187,0.686623
757,-0.353493,-0.406203,0.629736
758,-0.412219,-0.403035,0.442914
759,-0.113999,-0.151379,-0.073393
760,0.031817,0.062408,-0.777896
761,1.147092,1.882789,-1.897107
762,1.126415,1.887912,-1.905115
763,-0.049059,0.099132,-0.280515
764,-0.554068,0.101506,-0.387874
765,-0.515211,0.626612,0.386412
766,0.008675,1.514658,2.179614
767,-0.355969,-0.54907,1.379091
768,-0.895266,-0.986088,0.943536
769,-0.156079,-0.065462,1.121004
770,-0.08469,0.479488,1.415964
771,0.186291,0.727859,0.972897
772,0.886571,0.765123,0.544104
773,0.592347,0.145162,0.172029
774,0.251909,0.032857,0.206659
775,0.088957,-0.04347,0.191389
776,-0.138326,-0.122245,0.240048
777,-0.219217,-0.265466,0.06118
778,-0.252911,-0.348509,0.069449
779,-0.142359,-0.254275,0.111859
780,-0.188354,-0.206099,-0.023264
781,-0.138646,-0.1992,-0.22279
782,0.037169,-0.1668,-0.200954
783,-0.094474,0.009023,-0.173796
784,-0.085707,0.00598,-0.202178
785,0.148878,0.094115,-0.244383
786,0.472047,0.083961,-0.308463
787,0.601997,0.043362,-0.138297
788,0.558086,0.126094,-0.022291
789,0.462528,0.005694,-0.253375
790,0.41719,0.003272,-0.296832
791,0.303195,0.093578,-0.189704
792,0.261075,0.388176,-0.024164
793,0.028667,0.472003,-0.06163
794,-0.432043,0.594764,0.028832
795,-0.241821,0.309178,0.384028
796,-0.070056,0.458465,0.294276
797,-0.081662,0.751633,0.318042
798,-0.048698,1.326467,0.442808
799,-0.222923,1.05951,0.295682
800,-0.407877,0.377083,0.220267
801,-0.168136,-0.028614,0.422481
802,0.041928,-0.027346,0.43718
803,0.232634,-0.191479,0.499818
804,0.012257,-0.58694,0.659542
805,-0.205616,-0.64848,0.707656
806,-0.387409,-0.665421,0.870826
807,-0.50372,-0.587887,0.925902
808,-0.5813,-0.283575,0.90573
809,-0.693709,-0.160629,0.748723
810,-0.784878,-0.208641,0.610325
811,-0.6398,-0.249865,0.394781
812,0.155828,0.212825,-0.638791
813,1.046926,1.284485,-1.548274
814,1.4051,1.528483,-1.884309
815,-0.044474,-0.455536,-0.203592
816,-0.19669,-0.723512,-0.313601
817,-0.251138,-0.696936,-0.083317
818,-0.306627,0.502207,0.96606
819,-0.07384,2.294447,-0.459437
820,0.254797,2.676436,-0.333455
821,-1.152642,-0.71893,0.77218
822,-1.256151,-1.101531,0.43132
823,-0.350166,-0.361068,1.166968
824,0.370395,0.321044,1.009252
825,0.963234,0.522317,0.777968
826,0.913098,0.888927,0.379398
827,0.646468,-0.081707,-0.243761
828,0.177808,-0.198689,-0.08784
829,-0.018815,-0.318942,0.04401
830,-0.32805,-0.268846,0.270255
831,-0.299856,-0.167345,0.179647
832,-0.322205,-0.128069,0.140013
833,-0.331412,-0.019981,-0.179873
834,-0.278396,0.001048,-0.363274
835,-0.027304,-0.142234,-0.015198
836,0.147904,-0.223171,-0.024041
837,-0.018456,-0.064648,-0.06835
838,-0.033603,0.079887,-0.236121
839,0.412845,0.152069,-0.180431
840,0.785261,0.024627,0.026072
841,0.643056,0.040577,-0.078669
842,0.49724,-0.008368,0.012564
843,0.248832,0.099736,-0.384063
844,0.131366,0.13158,-0.194056
845,0.110458,0.267494,-0.267244
846,0.207919,0.090587,0.032596
847,0.217262,0.314669,0.179196
848,0.096501,0.558614,0.667723
849,-0.065005,0.788923,0.18541
850,-0.045964,0.916242,0.226736
851,0.021396,1.098097,0.684849
852,-0.164179,0.482864,0.257997
853,-0.215489,0.320021,0.296825
854,-0.188244,0.034358,0.488228
855,0.20236,-0.113741,0.580634
856,0.231041,-0.200748,0.656615
857,0.061903,-0.452048,0.705774
858,-0.202397,-0.603546,0.884246
859,-0.363656,-0.746697,0.852791
860,-0.448195,-0.567324,0.895063
861,-0.488058,-0.528062,0.905747
862,-0.515583,-0.34193,0.76255
863,-0.465395,-0.290932,0.435484
864,-0.232849,-0.033885,-0.146984
865,-0.127022,0.297589,-0.807185
866,0.847703,1.446947,-1.266477
867,0.863637,0.969268,-0.885693
868,0.621645,0.304033,-0.264758
869,-0.145828,-0.464931,-0.589447
870,-0.215949,-0.000251,0.134902
871,-0.171035,0.338037,0.733792
872,0.41861,2.141454,-0.013966
873,-0.716943,0.038917,1.406881
874,-1.032609,-0.756939,1.196929
875,-0.475069,-0.294202,1.175503
876,-0.153279,0.138533,1.292435
877,0.002142,0.304644,1.107935
878,0.90239,0.673929,1.082915
879,1.242025,0.751834,0.252739
880,1.098331,0.180364,-0.012743
881,0.047998,-0.351876,-0.049037
882,-0.174047,-0.242835,0.270969
883,-0.243772,-0.163957,-0.012612
884,-0.488371,-0.18903,0.128726
885,-0.402146,-0.105768,-0.041845
886,-0.312116,0.05398,-0.244575
887,-0.10589,-0.066776,-0.42234
888,0.373192,-0.229374,0.102454
889,0.151136,-0.158262,-0.109964
890,-0.014083,-0.086216,-0.031752
891,0.107939,-0.063774,0.018292
892,0.313707,0.013232,-0.043362
893,0.451525,0.191979,-0.057747
894,0.495205,0.101339,-0.111194
895,0.593901,0.07015,-0.005974
896,0.646356,-0.033572,-0.115962
897,0.55536,-0.007262,-0.232862
898,0.588084,0.083073,0.072045
899,0.353191,0.25253,0.11518
900,-0.493506,0.583644,0.279659
901,-0.571847,0.650212,0.32614
902,-0.147409,0.723974,0.299857
903,0.074251,1.046568,0.473096
904,0.045411,1.153362,0.515137
905,-0.122549,0.473267,0.294308
906,-0.20753,0.25519,0.3634
907,-0.072723,-0.052839,0.477953
908,0.266347,-0.047841,0.480493
909,0.235902,-0.208521,0.557814
910,0.008501,-0.395717,0.700485
911,-0.264278,-0.556624,0.853516
912,-0.322486,-0.633562,0.911773
913,-0.322435,-0.707555,0.920224
914,-0.481902,-0.431282,0.870419
915,-0.496,-0.344796,0.738386
916,-0.499385,-0.32242,0.66489
917,-0.216689,-0.094713,0.041849
918,-0.067294,0.15088,-0.56459
919,0.55195,0.964996,-0.938864
920,1.416625,1.892434,-1.626056
921,0.808814,0.30515,-0.285682
922,0.017402,-0.437947,-0.427236
923,-0.501353,-0.728012,-0.44903
924,-0.208303,0.111823,1.09323
925,-0.044394,0.956816,1.613616
926,0.652265,2.604859,-0.427341
927,-0.792829,-0.343415,1.531943
928,-1.130138,-1.103828,0.545701
929,-0.526205,-0.227993,1.039435
930,-0.009173,0.432844,1.078365
931,0.16565,0.44003,0.984555
932,0.923455,0.669076,0.77386
933,0.851855,0.467669,0.071453
934,0.620432,-0.238935,-0.033777
935,-0.056103,-0.444529,-0.120549
936,-0.234613,-0.234297,0.112809
937,-0.247888,-0.19349,0.017277
938,-0.337286,-0.149865,0.070999
939,-0.393589,-0.059386,-0.193565
940,-0.07434,0.012307,-0.261967
941,0.228415,-0.195901,-0.071202
942,0.047066,-0.060571,-0.068995
943,-0.03933,-0.059432,-0.169404
944,0.055713,-0.038017,-0.008834
945,0.377836,0.07904,-0.235335
946,0.507531,0.064191,-0.151092
947,0.605305,-0.07689,0.033968
948,0.74101,-0.149671,0.00959
949,0.646316,0.058479,-0.192949
950,0.473535,0.215675,0.014897
951,0.472568,0.297109,0.253163
952,-0.380617,0.646537,-0.034548
953,-0.634198,0.548582,0.126308
954,-0.181561,0.47831,0.386268
955,0.004338,0.636899,0.387224
956,0.051911,0.980741,0.327287
957,-0.001439,1.081728,0.566307
958,-0.043297,0.817809,0.392716
959,-0.18757,0.093698,0.335408
960,-0.036329,-0.10292,0.443523
961,0.050453,-0.144819,0.470075
962,0.075085,-0.196175,0.663088
963,-0.094654,-0.34736,0.767511
964,-0.162505,-0.39913,0.777472
965,-0.290282,-0.675845,0.911798
966,-0.260738,-0.580362,0.872554
967,-0.318246,-0.481513,0.896598
968,-0.42857,-0.379839,0.789603
969,-0.483776,-0.287534,0.529157
970,-0.501814,-0.297567,0.50914
971,-0.228253,0.006752,-0.175334
972,0.396659,0.699962,-1.219852
973,1.180743,2.047088,-1.841357
974,0.57684,0.585769,-0.546711
975,-0.14293,-0.187003,-0.383942
976,-0.270532,0.111241,-0.394183
977,0.15736,0.753653,0.897066
978,0.570275,1.744199,0.363208
979,-0.694998,-0.210841,1.097355
980,-1.286432,-1.085521,0.801082
981,-0.645127,-0.381441,1.177051
982,-0.37397,0.448563,1.246309
983,-0.042133,0.528957,1.001287
984,0.727816,0.523858,0.989552
985,0.786336,0.657207,0.541232
986,0.867072,0.006,0.00031
987,0.066312,-0.291751,-0.128618
988,-0.06701,-0.270191,-0.020626
989,-0.194085,-0.275239,0.176215
990,-0.351774,-0.246458,0.010432
991,-0.340999,-0.189197,0.031602
992,-0.159801,-0.042283,-0.179489
993,0.135581,-0.179086,-0.146665
994,0.0216,-0.198421,0.010586
995,-0.090072,-0.039718,-0.033829
996,-0.091147,-0.014607,-0.175304
997,0.161342,0.057111,-0.235439
998,0.58144,0.089741,-0.00548
999,0.672131,0.058652,-0.076571
1000,0.672786,-0.021674,0.065606
1001,0.604608,0.068013,-0.096854
1002,0.344545,0.172908,-0.252147
1003,0.192141,0.217165,-0.20034
1004,0.277596,0.35669,0.196345
1005,0.070872,0.396465,-0.044304
1006,-0.258572,0.597313,0.351279
1007,-0.210698,0.408828,0.491056
1008,-0.180075,0.627134,0.300318
1009,-0.141823,0.906179,0.153798
1010,-0.234781,0.906519,0.188841
1011,-0.252193,0.44477,0.173532
1012,-0.1426,0.029455,0.374841
1013,0.200671,-0.06104,0.473954
1014,0.249753,-0.151635,0.654011
1015,-0.01248,-0.303683,0.784408
1016,-0.170108,-0.455296,0.894825
1017,-0.263272,-0.708921,0.931299
1018,-0.344223,-0.75015,0.874416
1019,-0.319712,-0.504842,0.908615
1020,-0.323728,-0.400201,0.84169
1021,-0.419772,-0.331048,0.738624
1022,-0.37783,-0.320437,0.481604
1023,-0.184562,-0.232578,0.07392
1024,0.129755,0.43445,-1.361014
1025,0.963419,2.097703,-1.782168
1026,0.165236,0.240074,-0.358802
1027,-0.11203,-0.341583,-0.313364
1028,-0.787276,-0.165988,-0.320838
1029,-0.357326,0.570166,0.811515
1030,0.635913,1.125916,1.051434
1031,0.489382,0.813394,0.865174
1032,-1.189219,-0.875632,0.886869
1033,-1.092378,-0.689169,0.479219
1034,-0.378207,0.087178,1.369787
1035,-0.03271,0.48688,1.009402
1036,0.212487,0.598945,0.975382
1037,1.015192,0.762065,0.861517
1038,0.808927,0.001771,0.035459
1039,0.474359,-0.070029,-0.05456
1040,0.053673,-0.28264,-0.060041
1041,-0.193472,-0.137891,0.21146
1042,-0.193449,-0.153025,0.121838
1043,-0.263219,-0.231672,0.084911
1044,-0.25128,-0.123959,-0.06677
1045,-0.188843,0.031886,-0.200192
1046,0.155494,-0.211377,-0.012188
1047,0.13228,-0.188217,0.130099
1048,0.023173,-0.147184,0.075581
1049,-0.078096,0.069912,-0.320223
1050,0.018657,0.064667,-0.27336
1051,0.348922,0.104643,-0.165627
1052,0.640836,0.092935,0.045086
1053,0.603817,0.036773,0.013913
1054,0.571309,0.096919,-0.075387
1055,0.501446,0.099074,-0.202311
1056,0.512214,0.133453,-0.006463
1057,0.321625,0.217883,-0.007661
1058,-0.192053,0.349855,-0.043446
1059,-0.253035,0.38591,0.488435
1060,-0.298616,0.365351,0.48726
1061,-0.185831,0.767414,0.244874
1062,-0.120767,1.182549,0.367853
1063,-0.163958,1.108136,0.409028
1064,-0.231856,0.438222,0.318284
1065,-0.063907,0.051208,0.43627
1066,0.360015,-0.081432,0.4998
1067,0.181655,-0.26814,0.618069
1068,-0.165415,-0.2653,0.764856
1069,-0.210624,-0.337316,0.894142
1070,-0.242791,-0.63003,0.89182
1071,-0.392214,-0.535231,0.874482
1072,-0.335646,-0.376547,0.882137
1073,-0.256322,-0.340878,0.857688
1074,-0.31667,-0.323414,0.635842
1075,-0.328645,-0.343097,0.502338
1076,-0.273129,-0.207868,0.196465
1077,-0.067948,0.231922,-0.900999
1078,0.670971,1.143877,-1.219581
1079,0.933847,1.690662,-1.213317
1080,0.19037,0.289852,-0.323211
1081,-0.253723,-0.333165,-0.44219
1082,-0.45071,-0.317557,-0.011022
1083,-0.202144,-0.193326,1.462456
1084,0.122702,0.934534,0.821028
1085,0.474515,2.45087,0.377021
1086,-0.874911,-0.6235,1.470116
1087,-0.932276,-1.110337,0.487631
1088,-0.372605,-0.098257,1.222585
1089,0.049336,0.426311,0.998955
1090,0.197474,0.468088,0.962489
1091,1.073242,0.358206,0.10547
1092,1.028465,0.361465,0.057525
1093,0.490634,-0.078652,-0.126626
1094,-0.21146,-0.282362,0.075598
1095,-0.234559,-0.274997,0.083464
1096,-0.146919,-0.282234,0.133919
1097,-0.211129,-0.109547,0.095835
1098,-0.269736,-0.103999,-0.103304
1099,-0.305702,-0.075638,-0.250731
1100,-0.089302,-0.025556,-0.068148
1101,-0.034687,-0.044936,0.121483
1102,-0.095748,0.01888,-0.165097
1103,0.05685,0.076454,-0.170877
1104,0.546722,0.170606,-0.089032
1105,0.547916,0.037961,-0.080846
1106,0.666773,0.064234,0.150666
1107,1.007052,0.141431,0.287192
1108,1.007013,0.249884,0.487444
1109,-0.428262,1.127274,-1.036615
1110,-0.825532,1.103764,-0.837677
1111,-0.786496,0.671532,0.027204
1112,-0.321934,0.202754,0.125086
1113,0.169586,0.451672,0.427136
1114,0.161093,0.599961,0.44553
1115,-0.032425,0.681236,0.555927
1116,-0.294775,0.549822,0.171201
1117,-0.468198,0.429372,0.408847
1118,-0.371344,0.228306,0.484237
1119,-0.17314,0.053124,0.572768
1120,0.245195,-0.079849,0.619413
1121,0.281587,-0.241711,0.871091
1122,0.099719,-0.524445,0.818155
1123,-0.230367,-0.745459,0.766248
1124,-0.377653,-0.493725,0.856323
1125,-0.3439,-0.44527,0.864469
1126,-0.358785,-0.402168,0.731028
1127,-0.34413,-0.383771,0.471787
1128,-0.300473,-0.301558,0.052306
1129,0.016149,0.079828,-1.195739
1130,0.513035,1.069896,-1.143172
1131,0.354042,0.858301,-0.67345
1132,0.247395,0.351062,-0.218896
1133,-0.355217,-0.124718,-0.381158
1134,-0.024274,0.467574,0.795553
1135,0.288751,0.68086,1.578226
1136,-0.9693,-0.489839,1.305803
1137,-1.055153,-0.86805,1.119565
1138,-0.133397,-0.214831,1.103982
1139,-0.125259,0.322833,1.452771
1140,-0.127043,0.305773,1.07404
1141,0.7922,0.5159,0.782023
1142,1.170874,0.616403,0.207038
1143,0.436462,0.12957,0.189844
1144,0.189255,-0.04431,0.316268
1145,-0.043555,-0.164874,0.227089
1146,-0.174695,-0.239508,0.111845
1147,-0.317202,-0.203584,-0.026129
1148,-0.329052,-0.180717,0.071634
1149,-0.253936,-0.131311,0.10028
1150,-0.192454,-0.116001,-0.085378
1151,-0.151816,-0.022289,-0.135288
1152,-0.010187,-0.064274,-0.076159
1153,0.012901,-0.068623,-0.040787
1154,-0.047893,0.095607,-0.231477
1155,0.144412,0.080275,-0.115728
1156,0.511629,0.178297,-0.051732
1157,0.477135,0.069648,0.053895
1158,0.512764,0.063015,0.070863
1159,0.559717,0.102944,-0.01965
1160,0.537018,0.158268,-0.146689
1161,0.605289,0.09661,0.012444
1162,0.461519,0.264781,0.073751
1163,-0.248545,0.374125,-0.056163
1164,-0.374428,0.388821,0.30347
1165,-0.13313,0.309241,0.45089
1166,-0.074065,0.421429,0.477135
1167,-0.157258,1.149835,0.403232
1168,-0.217826,1.062251,0.464517
1169,-0.232765,0.74602,0.482587
1170,-0.196882,0.030857,0.423124
1171,0.149283,-0.035287,0.492368
1172,0.368817,-0.08587,0.520196
1173,0.201224,-0.180573,0.753322
1174,-0.123698,-0.329586,0.849109
1175,-0.341092,-0.621192,0.869947
1176,-0.393362,-0.719791,0.838387
1177,-0.384622,-0.486997,0.867724
1178,-0.336585,-0.37219,0.846982
1179,-0.336557,-0.341843,0.747603
1180,-0.349879,-0.308811,0.51588
1181,-0.141572,-0.00653,-0.340094
1182,0.049728,0.263617,-1.148705
1183,0.752338,1.074449,-1.054237
1184,0.466807,0.731748,-0.624959
1185,0.238321,0.227696,-0.264771
1186,-0.250879,-0.115418,-0.485634
1187,0.046549,0.469779,0.938805
1188,0.041916,0.456251,0.918868
1189,0.180195,1.586018,0.170248
1190,-1.113712,-0.603801,1.212677
1191,-1.254195,-0.891042,0.914321
1192,-0.119179,0.037364,1.398785
1193,-0.105471,0.223271,1.176249
1194,0.254959,0.448721,0.907142
1195,1.126836,0.664969,0.570134
1196,0.945119,0.351535,-0.031955
1197,0.179007,-0.040561,0.144168
1198,0.000139,-0.094605,0.360244
1199,-0.135984,-0.226357,0.250357
1200,-0.261974,-0.205305,0.048193
1201,-0.349566,-0.128228,0.044005
1202,-0.289986,-0.102381,0.129311
1203,-0.071353,-0.146146,0.103519
1204,-0.021412,-0.136329,-0.053146
1205,-0.00624,-0.088036,-0.04322
1206,-0.101262,-0.063707,-0.139581
1207,-0.110419,0.076328,-0.073881
1208,-0.01242,0.093191,-0.258867
1209,0.314618,0.047626,-0.145163
1210,0.598855,0.205682,-0.031225
1211,0.596079,0.125121,-0.004672
1212,0.666809,0.041445,0.081497
1213,0.638907,0.102695,-0.08437
1214,0.544847,0.11084,-0.158362
1215,0.422158,0.227473,0.047827
1216,0.266821,0.264687,-0.055414
1217,-0.098285,0.239603,0.067396
1218,-0.129998,0.297517,0.581222
1219,-0.199252,0.488476,0.677207
1220,-0.217206,0.90264,0.345236
1221,-0.273148,1.203233,0.382182
1222,-0.221411,0.952604,0.516984
1223,-0.294233,0.249508,0.280066
1224,-0.029982,0.089894,0.573636
1225,0.433951,-0.071739,0.586976
1226,0.213564,-0.21079,0.75834
1227,0.006779,-0.247369,0.79437
1228,-0.225675,-0.430529,0.936388
1229,-0.361756,-0.728662,0.804376
1230,-0.384495,-0.649267,0.827144
1231,-0.346421,-0.410327,0.863951
1232,-0.315311,-0.340531,0.774563
1233,-0.309491,-0.302962,0.579228
1234,-0.317955,-0.312288,0.404439
1235,-0.051895,0.074447,-0.750609
1236,0.129985,0.477829,-1.142551
1237,1.084002,1.697404,-1.443828
1238,0.390982,0.479076,-0.255816
1239,-0.190603,-0.333339,-0.336375
1240,-0.623709,-0.154718,-0.149385
1241,-0.077764,0.25971,0.719289
1242,0.82721,1.315481,1.025489
1243,-0.114129,0.966927,0.918021
1244,-1.305986,-0.950688,0.654999
1245,-0.964431,-0.752333,0.577216
1246,-0.275829,0.096753,1.322387
1247,-0.063474,0.278765,1.102108
1248,0.294533,0.490134,0.931655
1249,1.109392,0.630893,0.731852
1250,1.137536,0.358173,0.026551
1251,0.356421,-0.080942,0.041803
1252,-0.10745,-0.262672,0.224132
1253,-0.288256,-0.217341,0.206389
1254,-0.310551,-0.178272,0.113481
1255,-0.316722,-0.178161,0.142604
1256,-0.160195,-0.106329,0.009222
1257,0.00826,-0.091695,-0.065351
1258,-0.002348,-0.086904,0.021856
1259,-0.076476,-0.103202,0.041276
1260,-0.074806,-0.016745,-0.055383
1261,-0.079095,0.035432,-0.047531
1262,-0.003454,0.031744,-0.183042
1263,0.276481,0.005639,4.50E-05
1264,0.614057,0.119796,0.040807
1265,0.598283,0.064929,0.101784
1266,0.565744,0.095139,0.020148
1267,0.570466,0.16734,-0.034552
1268,0.503422,0.188318,-0.081848
1269,0.435121,0.241118,0.157147
1270,-0.193027,0.475303,-0.152042
1271,-0.441535,0.277542,0.04408
1272,-0.290717,0.247886,0.356505
1273,-0.054624,0.606486,0.493704
1274,-0.124292,1.036032,0.27796
1275,-0.204884,1.193352,0.31647
1276,-0.262743,0.966735,0.469029
1277,-0.261116,0.193709,0.428256
1278,0.041637,0.008146,0.44781
1279,0.278992,-0.055185,0.456265
1280,0.218744,-0.158047,0.773341
1281,-0.091611,-0.268412,0.792193
1282,-0.223219,-0.370368,0.810708
1283,-0.325167,-0.616563,0.806188
1284,-0.297498,-0.626026,0.817236
1285,-0.348275,-0.444107,0.812006
1286,-0.347099,-0.364676,0.746885
1287,-0.263978,-0.346883,0.599138
1288,-0.294571,-0.339551,0.460585
1289,-0.077962,-0.011815,-0.564131
1290,0.648577,0.725486,-1.26716
1291,1.058801,1.80184,-1.382339
1292,0.480339,0.64848,-0.347329
1293,-0.185437,-0.265086,-0.416957
1294,-0.654925,-0.447909,-0.278672
1295,-0.325084,0.297832,0.774017
1296,0.164821,0.330975,1.712447
1297,0.741777,2.725974,-1.046078
1298,-0.775654,-0.252433,1.612976
1299,-1.391363,-0.98009,0.804347
1300,-0.381599,-0.255679,0.893429
1301,-0.25983,0.261314,1.333672
1302,0.013583,0.483791,1.06293
1303,0.798235,0.392189,0.856898
1304,1.220994,0.603971,0.184256
1305,0.689094,0.065522,-0.054788
1306,0.177888,-0.119262,-0.014517
1307,-0.047414,-0.233047,0.235061
1308,-0.197489,-0.179681,0.247375
1309,-0.271036,-0.225312,0.2124
1310,-0.306356,-0.172574,0.123691
1311,-0.123829,-0.086109,-0.041749
1312,-0.124647,-0.087501,-0.05864
1313,-0.140998,-0.113535,-0.03761
1314,-0.155429,-0.061235,0.058217
1315,-0.133489,0.060351,-0.13155
1316,0.060172,0.104237,-0.216916
1317,0.438855,0.152526,-0.071107
1318,0.665873,0.089815,-0.080248
1319,0.583566,0.023245,0.098924
1320,0.651108,0.047796,0.051226
1321,0.624101,0.106497,-0.029673
1322,0.496706,0.229453,-0.054287
1323,0.448358,0.430468,0.003179
1324,-0.248821,0.411628,-0.09775
1325,-0.308935,0.38504,0.145603
1326,-0.177278,0.279015,0.460568
1327,-0.061462,0.569474,0.484279
1328,-0.09278,1.048872,0.445404
1329,-0.209086,1.184019,0.389166
1330,-0.282259,0.678232,0.426427
1331,-0.279619,0.157563,0.496719
1332,0.105597,-0.071514,0.576416
1333,0.364219,-0.120628,0.568762
1334,0.174035,-0.160838,0.794661
1335,0.057903,-0.211249,0.88434
1336,-0.320938,-0.52543,0.840243
1337,-0.314163,-0.581463,0.868185
1338,-0.38498,-0.498967,0.860619
1339,-0.340512,-0.390041,0.884709
1340,-0.321784,-0.359909,0.804163
1341,-0.308151,-0.307553,0.437266
1342,-0.272229,-0.252269,0.275353
1343,-0.200409,-0.146428,-0.092554
1344,1.077821,1.731768,-1.270862
1345,1.07993,1.833221,-1.276734
1346,0.386993,0.379527,-0.216651
1347,-0.214886,-0.27638,-0.365126
1348,-0.58343,-0.482431,-0.244815
1349,-0.202553,0.111153,0.855898
1350,0.229927,0.611201,1.758202
1351,0.722994,3.040193,-0.451399
1352,-0.981101,-0.334589,1.477728
1353,-1.339511,-1.122466,0.672833
1354,-0.481023,-0.313134,1.197413
1355,-0.260938,0.368899,1.280333
1356,0.025363,0.526974,0.98448
1357,0.23624,0.481047,0.888257
1358,1.189367,0.58979,0.256549
1359,0.412511,-0.090797,-0.172784
1360,-0.024873,-0.215537,-0.000129
1361,-0.222122,-0.132799,0.16827
1362,-0.240497,-0.228693,0.217435
1363,-0.287155,-0.231617,0.197857
1364,-0.203262,-0.086318,0.003585
1365,-0.136698,-0.051199,-0.075922
1366,-0.046824,-0.085265,-0.074876
1367,-0.041396,-0.090352,-0.062748
1368,-0.062262,-0.03333,0.022811
1369,-0.051929,0.044397,-0.134552
1370,0.06834,0.031049,-0.220853
1371,0.454426,0.148706,-0.033071
1372,0.589385,0.145588,0.010458
1373,0.635847,0.011893,0.106993
1374,0.621994,-0.008274,-0.038136
1375,0.553069,0.029852,-0.082602
1376,0.323735,0.125727,-0.123689
1377,0.181653,0.299639,-0.042822
1378,0.019112,0.331413,-0.064129
1379,-0.024019,0.467953,0.322134
1380,-0.248145,0.459093,0.589835
1381,-0.26639,0.717947,0.470942
1382,-0.244158,1.16187,0.415839
1383,-0.345505,1.232852,0.34354
1384,-0.357717,0.702063,0.459385
1385,-0.191203,0.229091,0.411053
1386,0.276917,-0.112055,0.557177
1387,0.473535,-0.170575,0.623373
1388,0.134467,-0.197288,0.828076
1389,-0.166605,-0.406537,0.882166
1390,-0.251447,-0.487213,0.932931
1391,-0.308481,-0.544497,0.907412
1392,-0.360096,-0.340367,0.88211
1393,-0.310715,-0.270602,0.851421
1394,-0.291004,-0.305259,0.745853
1395,-0.28743,-0.347669,0.525764
1396,-0.272291,-0.310399,0.217074
1397,-0.057489,-0.008863,-0.758481
1398,0.562716,0.825277,-1.210266
1399,0.859347,1.666883,-1.364023
1400,0.278876,0.486452,-0.40108
1401,-0.510734,-0.314709,-0.263174
1402,-0.581787,0.021914,0.044677
1403,-0.469446,0.286156,0.630131
1404,0.616511,2.417548,-0.894078
1405,-0.7775,-0.54334,1.815835
1406,-1.20146,-0.950558,0.695012
1407,-0.276843,-0.018861,1.255886
1408,-0.297675,0.291998,1.344481
1409,0.103868,0.490742,0.97227
1410,0.529941,0.459889,0.877275
1411,1.191889,0.454639,0.519884
1412,0.365891,0.027017,-0.0752
1413,-0.029665,-0.061394,0.1441
1414,-0.068831,-0.067041,0.213075
1415,-0.250631,-0.171665,0.036057
1416,-0.277259,-0.215269,0.009649
1417,-0.225427,-0.227635,0.169994
1418,-0.154919,-0.061016,0.071762
1419,-0.138756,-0.058538,0.016914
1420,-0.033579,-0.059398,-0.099843
1421,-0.089782,-0.031837,-0.02096
1422,-0.124638,-0.018337,-0.002962
1423,0.035578,0.153889,-0.135327
1424,0.239729,0.198468,-0.236007
1425,0.47509,0.207193,-0.027692
1426,0.558118,0.084656,0.012514
1427,0.583258,0.028727,0.037878
1428,0.4863,0.098183,-0.124649
1429,0.384081,0.178388,-0.185166
1430,0.237563,0.285947,-0.044044
1431,0.159546,0.174591,-0.178016
1432,0.0239,0.102903,-0.171164
1433,-0.038491,0.290393,0.65846
1434,-0.299686,0.47472,0.743779
1435,-0.321078,1.098493,0.160941
1436,-0.312474,1.225968,0.274784
1437,-0.232616,0.680497,0.287653
1438,-0.191295,0.50497,0.408869
1439,-0.098747,0.223025,0.711132
1440,0.37442,-0.166106,0.652376
1441,0.227937,-0.213816,0.727002
1442,0.049732,-0.262521,0.810632
1443,-0.32973,-0.426888,0.902418
1444,-0.39381,-0.556536,0.908884
1445,-0.378569,-0.488301,0.901212
1446,-0.399628,-0.338775,0.86158
1447,-0.314709,-0.319698,0.794259
1448,-0.249489,-0.338438,0.72479
1449,-0.275307,-0.370474,0.287149
1450,0.014636,0.359539,-1.221277
1451,0.885194,1.536453,-1.339269
1452,0.754973,1.299762,-0.785809
1453,0.402633,0.572609,-0.208361
1454,-0.440943,0.013914,-0.30302
1455,-0.365319,0.180025,0.060226
1456,0.21519,0.656409,1.222754
1457,-0.285816,0.599057,1.040018
1458,-1.276126,-0.69052,1.245945
1459,-1.080163,-0.644561,0.698069
1460,0.01349,0.323088,1.739635
1461,-0.102033,0.234723,1.072447
1462,0.668748,0.367115,0.507762
1463,0.970688,0.45528,0.334499
1464,0.347226,0.070728,0.376637
1465,-0.071812,-0.067263,0.380653
1466,-0.104488,0.050394,0.241209
1467,-0.040411,-0.105858,0.105514
1468,-0.033726,-0.078488,-0.037556
1469,-0.225577,-0.152723,0.031919
1470,-0.175385,-0.13505,0.082591
1471,-0.177176,-0.146722,0.194064
1472,-0.171393,-0.162846,-0.009397
1473,-0.061273,-0.111857,-0.234073
1474,0.057673,-0.059124,-0.042408
1475,-0.089218,0.043268,0.023894
1476,-0.031517,0.041963,-0.16209
1477,0.299509,0.054135,0.005747
1478,0.474127,0.1365,0.07935
1479,0.548805,0.144442,0.077068
1480,0.536318,0.121393,0.001764
1481,0.543857,0.15015,-0.081133
1482,0.420788,0.1317,-0.173131
1483,0.350271,0.131662,0.000781
1484,0.293895,0.182334,-0.035673
1485,-0.055741,0.307148,0.416322
1486,-0.122171,0.295382,0.744149
1487,-0.233781,0.311054,0.825949
1488,-0.251916,1.069992,0.325271
1489,-0.200123,1.099167,0.409912
1490,-0.164584,0.808332,0.379164
1491,-0.179256,0.36166,0.609651
1492,0.062225,-0.053685,0.537428
1493,0.34733,-0.121781,0.599279
1494,0.22786,-0.203627,0.738804
1495,-0.006991,-0.36282,0.84278
1496,-0.281585,-0.516075,0.947195
1497,-0.330397,-0.49679,0.934652
1498,-0.407686,-0.360369,0.919307
1499,-0.381498,-0.30956,0.824292
1500,-0.279041,-0.328306,0.721069
1501,-0.283395,-0.355616,0.63356
1502,-0.187529,-0.168768,-0.00453
1503,0.11815,0.452545,-1.163728
1504,0.520394,0.815837,-1.174763
1505,0.848695,1.331778,-0.756764
1506,0.158293,0.089894,-0.127417
1507,0.153497,0.103035,-0.115335
1508,-0.503066,0.179999,0.348316
1509,0.275092,0.221467,1.806943
1510,0.774751,2.781425,-0.680768
1511,-0.837941,0.072303,1.492338
1512,-1.402511,-1.126968,0.684442
1513,-0.242563,-0.157927,1.273041
1514,-0.246676,0.279066,1.353514
1515,0.070842,0.411529,1.26001
1516,0.925496,0.314749,1.10141
1517,1.181778,0.636132,-0.142578
1518,0.346295,0.050189,-0.144797
1519,0.017438,-0.043034,0.162187
1520,-0.065613,-0.149485,0.30141
1521,-0.209838,-0.274545,0.130174
1522,-0.246065,-0.306801,0.129706
1523,-0.193135,-0.138431,0.134524
1524,-0.276735,-0.004967,-0.059796
1525,-0.175453,-0.020346,-0.187531
1526,-0.013345,-0.059961,-0.203386
1527,-0.140036,-0.009741,0.022293
1528,-0.108111,0.042408,-0.085664
1529,-0.046285,0.095675,-0.180004
1530,0.457091,0.152834,0.074281
1531,0.498598,0.177806,0.016758
1532,0.501523,0.142956,0.018818
1533,0.456118,0.115803,0.002393
1534,0.391279,0.170318,-0.095269
1535,0.328014,0.209794,-0.071544
1536,0.345899,0.200499,0.012083
1537,0.292829,0.199018,-0.148669
1538,0.164718,0.203378,-0.176605
1539,-0.137418,0.277061,0.714558
1540,-0.306269,0.626914,0.543739
1541,-0.34427,0.973203,0.193323
1542,-0.297456,0.915821,0.398441
1543,-0.235822,0.797381,0.369762
1544,-0.171363,0.394469,0.472998
1545,-0.042712,-0.032887,0.531446
1546,0.196935,-0.008987,0.545818
1547,0.143834,-0.134535,0.739662
1548,-0.044609,-0.385872,0.782436
1549,-0.170773,-0.386811,0.829675
1550,-0.336024,-0.482785,0.92783
1551,-0.407571,-0.402786,0.885837
1552,-0.380261,-0.365236,0.885989
1553,-0.273257,-0.342877,0.817016
1554,-0.270549,-0.367305,0.592709
1555,-0.251311,-0.35594,0.241187
1556,-0.087986,0.00731,-0.690647
1557,0.52517,0.867973,-1.182973
1558,1.082668,1.915105,-1.269153
1559,0.405212,0.480904,-0.260597
1560,-0.285383,-0.184888,-0.379332
1561,-0.518028,0.183877,0.090321
1562,0.091041,0.596266,0.899479
1563,0.555927,2.076533,0.06133
1564,0.06316,1.10988,0.929786
1565,-1.386389,-1.033224,0.703309
1566,-0.089807,0.146064,1.405767
1567,-0.067886,0.499219,1.640892
1568,0.144078,0.443826,0.955505
1569,0.921865,0.464517,0.762074
1570,0.973946,0.438786,0.316839
1571,0.401101,0.048015,0.134788
1572,0.08146,-0.049319,0.247171
1573,-0.072397,-0.117014,0.273744
1574,-0.193261,-0.23308,0.093452
1575,-0.330221,-0.195924,0.227746
1576,-0.307628,-0.194245,0.272871
1577,-0.300011,-0.122632,0.162996
1578,-0.172798,-0.066247,-0.151374
1579,-0.01416,-0.138118,-0.148327
1580,0.085045,-0.153607,-0.027104
1581,-0.075936,0.02425,-0.003292
1582,-0.040818,0.119213,-0.148259
1583,0.017386,0.111051,-0.307109
1584,0.53715,0.128771,-0.077601
1585,0.483142,0.133199,-0.069747
1586,0.514872,0.099978,0.036752
1587,0.444546,0.143821,-0.122259
1588,0.395808,0.083109,-0.132733
1589,0.378911,0.164223,0.136792
1590,0.063428,0.244036,-0.060368
1591,-0.204429,0.529803,0.259063
1592,-0.229356,0.356023,0.659651
1593,-0.188116,0.611873,0.595372
1594,-0.210034,0.867478,0.41307
1595,-0.204938,1.102917,0.382669
1596,-0.115815,0.857478,0.430692
1597,-0.04901,0.338107,0.444343
1598,0.109213,-0.082143,0.470558
1599,0.273814,-0.12554,0.642334
1600,0.244907,-0.143402,0.729799
1601,-0.098701,-0.285736,0.845558
1602,-0.210625,-0.382813,0.869465
1603,-0.242406,-0.448317,0.938908
1604,-0.368061,-0.470339,0.899528
1605,-0.34025,-0.311319,0.850539
1606,-0.294271,-0.288955,0.828056
1607,-0.252703,-0.287559,0.780959
1608,-0.249465,-0.272115,0.301731
1609,-0.283869,-0.286807,0.27268
1610,0.126565,0.37438,-1.200139
1611,0.858296,1.342557,-1.305265
1612,0.944382,1.630017,-1.308242
1613,0.135306,0.11672,-0.333856
1614,-0.38441,-0.283833,-0.41929
1615,-0.40875,0.434882,0.478751
1616,0.463884,0.88923,1.658893
1617,0.509879,1.866704,-0.248733
1618,-1.367477,-0.675121,1.492946
1619,-1.47283,-1.046493,0.080261
1620,-0.107942,0.288488,1.74312
1621,-0.215478,0.47374,1.296488
1622,0.208043,0.442437,0.943142
1623,1.160188,0.576735,0.582997
1624,1.272512,0.369835,0.115603
1625,0.288833,0.002041,0.152095
1626,-0.00502,-0.128343,0.196944
1627,-0.087883,-0.186534,0.261776
1628,-0.193934,-0.15017,0.203051
1629,-0.478391,-0.280262,0.157958
1630,-0.263147,-0.166368,0.111439
1631,-0.20642,-0.059882,0.028574
1632,-0.223237,-0.042494,-0.059148
1633,-0.046954,-0.018855,-0.027947
1634,-0.049704,-0.053215,0.100273
1635,-0.075205,0.043668,-0.109423
1636,0.120778,0.091872,-0.170316
1637,0.511006,0.155761,0.063021
1638,0.450118,0.114832,-0.023611
1639,0.527425,0.05303,0.223499
1640,0.462709,0.050886,0.005365
1641,0.365045,0.211095,-0.15646
1642,0.357369,0.104427,-0.062861
1643,0.306683,0.177995,0.051905
1644,-0.036544,0.155361,0.030731
1645,-0.291643,0.322716,0.304062
1646,-0.246987,0.329535,0.675413
1647,-0.200052,0.616021,0.491047
1648,-0.120172,1.034541,0.373275
1649,-0.070437,1.16882,0.340052
1650,-0.140835,0.823065,0.334409
1651,-0.132089,0.469816,0.418875
1652,-0.236205,0.25384,0.605084
1653,0.27155,-0.052038,0.473501
1654,0.260642,-0.172795,0.694141
1655,0.102018,-0.210819,0.757444
1656,-0.414058,-0.568352,0.908447
1657,-0.391283,-0.554642,0.934972
1658,-0.434273,-0.569674,0.872176
1659,-0.337968,-0.397903,0.831328
1660,-0.305547,-0.364682,0.813021
1661,-0.2948,-0.341683,0.760551
1662,-0.270941,-0.350798,0.283621
1663,-0.235946,-0.219768,-0.063856
1664,0.115123,0.443398,-1.266927
1665,1.008761,1.671832,-1.584655
1666,0.630709,1.152133,-0.567925
1667,0.045166,-0.049869,-0.340208
1668,-0.627806,-0.276847,-0.505113
1669,-0.408816,0.45814,0.793892
1670,0.379031,1.269382,1.832593
1671,0.634608,1.985178,0.230832
1672,-1.065322,-1.081234,1.906351
1673,-0.449226,-0.461256,0.999702
1674,-0.194909,0.195062,1.601988
1675,-0.13884,0.588346,1.304619
1676,0.967116,0.764827,1.006068
1677,1.18093,0.864917,0.781618
1678,0.93007,0.362808,0.046797
1679,-0.043112,0.082597,0.271086
1680,-0.138811,-0.119262,0.355849
1681,-0.03341,-0.134442,0.242775
1682,-0.249237,-0.340548,0.256053
1683,-0.191338,-0.2984,0.469174
1684,-0.241282,-0.167862,0.344076
1685,-0.385131,-0.04923,-0.18978
1686,-0.390336,0.017239,-0.449825
1687,0.059275,-0.078151,0.11518
1688,0.066038,-0.020506,-0.044517
1689,-0.066293,0.097697,-0.470847
1690,0.198462,0.066082,-0.153363
1691,0.659617,0.144364,-0.032529
1692,0.551202,0.045108,-0.030065
1693,0.513592,0.002485,0.185814
1694,0.5352,0.13272,-0.121936
1695,0.414913,0.21223,-0.228648
1696,0.418953,0.226454,-0.10263
1697,0.108905,0.433308,-0.059244
1698,-0.343729,0.354884,0.257736
1699,-0.236219,0.410116,0.496661
1700,-0.10134,0.373254,0.646034
1701,-0.168159,1.041092,0.208839
1702,-0.173779,1.063869,0.379896
1703,-0.226555,1.021279,0.50316
1704,-0.214968,0.248246,0.313216
1705,-0.264327,0.098715,0.411983
1706,-0.034309,-0.01681,0.560003
1707,0.30077,-0.183104,0.711461
1708,0.096147,-0.184272,0.805476
1709,-0.177695,-0.325743,0.896628
1710,-0.396987,-0.556351,0.920231
1711,-0.411962,-0.521555,0.959258
1712,-0.455554,-0.357377,0.920674
1713,-0.380187,-0.335851,0.907845
1714,-0.346916,-0.303028,0.798211
1715,-0.328478,-0.298491,0.594501
1716,-0.167502,-0.07327,-0.019643
1717,-0.063301,0.128741,-0.725558
1718,0.872452,1.487297,-1.234671
1719,0.728738,1.026368,-0.718985
1720,0.123944,0.013461,-0.144949
1721,-0.421279,-0.478765,-0.472866
1722,-0.486634,0.006597,0.428101
1723,0.017258,0.434717,1.758242
1724,1.087242,3.400008,-1.207642
1725,-0.504725,-0.036661,1.945372
1726,-1.366619,-1.386889,0.925647
1727,-0.551055,-0.413459,1.122059
1728,-0.274627,0.463422,1.445854
1729,0.019606,0.740922,1.124295
1730,0.84587,0.627404,1.038917
1731,0.975762,0.561767,0.388594
1732,0.63919,0.048753,-0.114822
1733,0.005607,-0.035555,0.225246
1734,-0.204443,-0.158668,0.255199
1735,-0.264416,-0.193067,0.167445
1736,-0.164955,-0.274969,0.219022
1737,-0.147951,-0.300754,0.374424
1738,-0.191155,-0.210789,0.249336
1739,-0.259446,-0.030497,-0.414269
1740,-0.059851,0.021887,-0.010722
1741,-0.067562,-0.00278,0.031972
1742,-0.090323,0.010722,-0.034053
1743,0.10808,0.012554,-0.091178
1744,0.124332,0.003931,-0.109651
1745,0.596094,0.006798,-0.028915
1746,0.565531,-0.010083,0.15961
1747,0.567643,-0.011108,0.158532
1748,0.434764,0.064855,-0.12701
1749,0.207948,0.181239,-0.2
1750,0.137811,0.241048,-0.119879
1751,-0.092609,0.262766,-0.116919
1752,0.092916,0.469087,0.351441
1753,-0.139946,0.307053,0.741594
1754,-0.273424,0.575308,0.491062
1755,-0.187844,0.981378,0.24009
1756,-0.174124,1.3909,0.427859
1757,-0.221744,1.235873,0.319182
1758,-0.076914,0.492422,0.286686
1759,-0.141064,0.24604,0.490056
1760,0.315218,-0.087594,0.739469
1761,0.453551,-0.212154,0.785368
1762,0.076067,-0.270409,0.82112
1763,-0.374632,-0.523864,0.953573
1764,-0.460408,-0.654634,0.977113
1765,-0.470318,-0.529142,0.9327
1766,-0.302723,-0.471437,0.996116
1767,-0.359172,-0.411215,0.905137
1768,-0.343191,-0.378251,0.629486
1769,-0.177095,-0.267123,0.218374
1770,0.05308,0.538411,-1.259139
1771,0.406117,1.206948,-1.49056
1772,0.686088,1.083029,-0.873507
1773,0.098907,-0.091379,-0.012638
1774,-0.352879,-0.508252,-0.373445
1775,-0.224871,0.055953,0.275818
1776,0.272351,0.719779,1.567498
1777,0.933456,3.337538,-0.521199
1778,-0.844712,-0.372337,1.74662
1779,-1.468045,-1.416875,0.505125
1780,-0.349864,-0.103606,1.587799
1781,-0.251186,0.565211,1.347003
1782,0.054856,0.68342,1.092688
1783,0.71158,0.648286,1.055819
1784,0.787159,0.71542,0.738859
1785,0.506332,-0.078805,0.044514
1786,0.239453,-0.154736,-0.076383
1787,0.020727,-0.232734,-0.043775
1788,-0.249804,-0.163933,0.30737
1789,-0.229757,-0.195692,0.282292
1790,-0.167662,-0.30371,0.364696
1791,-0.239795,-0.226059,0.201975
1792,-0.351111,0.042107,-0.373904
1793,-0.26342,0.017536,-0.210637
1794,-0.005176,-0.055984,0.157752
1795,0.011317,0.044838,-0.104183
1796,-0.05272,0.002624,-0.257776
1797,0.30366,0.104405,-0.059849
1798,0.652264,0.119048,-0.070297
1799,0.658298,-0.026523,0.128075
1800,0.661503,0.00843,0.161011
1801,0.545404,0.114626,-0.100341
1802,0.300443,0.216657,-0.140275
1803,0.359686,0.399405,0.14936
1804,-0.081341,0.586559,-0.019674
1805,-0.356707,0.51679,0.384726
1806,-0.161797,0.436171,0.522952
1807,-0.144863,0.81529,0.370999
1808,-0.249971,1.134629,0.32536
1809,-0.227246,1.170562,0.490726
1810,-0.352818,0.475731,0.291766
1811,-0.338986,0.148198,0.583355
1812,0.271045,-0.001804,0.481088
1813,0.455902,0.009164,0.584853
1814,0.107243,-0.26931,0.897896
1815,-0.183054,-0.476541,0.949349
1816,-0.370634,-0.626391,0.915684
1817,-0.459756,-0.555617,0.956745
1818,-0.376584,-0.382976,0.960862
1819,-0.300755,-0.319837,0.891425
1820,-0.306115,-0.28601,0.76808
1821,-0.297147,-0.270857,0.500738
1822,-0.216218,-0.154267,-0.022869
1823,0.197734,0.464061,-1.383936
1824,0.809205,1.674375,-1.427182
1825,0.583426,1.117528,-0.813738
1826,-0.018218,-0.057616,-0.310897
1827,-0.530737,-0.149109,-0.15967
1828,-0.393565,0.317165,0.790738
1829,0.511465,1.190397,1.392098
1830,0.666039,1.803134,0.855589
1831,-0.38898,-0.133687,2.118119
1832,-1.255596,-0.988697,0.141409
1833,-0.290293,0.292704,1.654159
1834,-0.201809,0.560786,1.302235
1835,0.102264,0.611675,1.041818
1836,1.040669,0.689856,0.897262
1837,0.946614,0.777308,0.55585
1838,0.357705,0.010876,-0.051032
1839,0.017595,-0.120608,0.178471
1840,-0.215507,-0.195373,0.261266
1841,-0.203718,-0.201968,0.178743
1842,-0.283925,-0.270246,0.303606
1843,-0.28239,-0.253337,0.304771
1844,-0.2819,-0.209943,0.204197
1845,-0.127299,0.049081,-0.19906
1846,-0.079937,0.019312,-0.066388
1847,-0.073044,-0.036749,0.01797
1848,-0.053441,0.034813,-0.125684
1849,0.064076,0.050735,-0.124433
1850,0.222587,0.11368,-0.090376
1851,0.51713,0.064472,0.08883
1852,0.578336,0.050392,0.184874
1853,0.658389,0.175682,0.192114
1854,0.676312,0.203658,0.21259
1855,0.416775,0.506704,0.146085
1856,-0.485651,0.789261,-0.452473
1857,-0.549757,0.302758,0.103974
1858,-0.148116,0.078282,0.47876
1859,-0.003519,0.430675,0.628565
1860,-0.077091,0.87449,0.490997
1861,-0.136676,1.045136,0.370151
1862,-0.227896,0.724543,0.45749
1863,-0.290553,0.383904,0.42965
1864,-0.263159,0.087154,0.558272
1865,0.150067,0.0708,0.484347
1866,0.28014,-0.020661,0.665708
1867,0.040314,-0.189671,0.832314
1868,-0.231578,-0.43055,0.9106
1869,-0.350933,-0.580966,0.918139
1870,-0.405463,-0.485151,0.879213
1871,-0.319532,-0.324619,0.903841
1872,-0.321806,-0.316445,0.853138
1873,-0.287342,-0.286004,0.717059
1874,-0.273091,-0.313727,0.59553
1875,-0.197437,-0.077471,-0.183216
1876,-0.098068,0.113757,-0.767686
1877,0.726226,1.351487,-1.051776
1878,0.68905,1.061506,-0.719782
1879,0.448459,0.534977,-0.256058
1880,-0.469544,-0.391637,-0.395276
1881,-0.512756,-0.125713,0.337953
1882,-0.046123,0.036797,1.799912
1883,0.541806,2.976256,-1.033308
1884,-0.132993,1.057379,1.684021
1885,-1.205302,-1.31832,1.430772
1886,-0.675424,-1.057598,0.685107
1887,-0.315847,0.164333,1.443681
1888,-0.028967,0.673614,1.247548
1889,0.669226,0.629183,1.057947
1890,0.957351,0.779336,0.65053
1891,0.734986,0.136743,-0.054775
1892,0.165385,-0.036934,-0.18971
1893,-0.185731,-0.186192,0.24167
1894,-0.186783,-0.165849,0.348945
1895,-0.20297,-0.177319,0.402523
1896,-0.373787,-0.191683,0.283273
1897,-0.272044,-0.073155,-0.158077
1898,-0.215474,0.049222,-0.207614
1899,-0.077951,-0.003772,0.073655
1900,-0.10552,-0.018705,0.081838
1901,-0.109557,0.093772,-0.170202
1902,0.097348,0.135848,-0.169112
1903,0.528041,0.167417,-0.082028
1904,0.552093,0.063829,-0.040034
1905,0.611628,0.004156,0.231813
1906,0.523594,0.060572,0.083658
1907,0.36712,0.136992,-0.15012
1908,0.165701,0.161569,-0.187638
1909,0.333465,0.344885,0.088521
1910,0.061712,0.330406,-0.054675
1911,-0.033327,0.412524,0.537408
1912,-0.137481,0.404827,0.634506
1913,-0.227292,0.715588,0.288441
1914,-0.198874,1.212487,0.435582
1915,-0.23266,1.251834,0.386556
1916,-0.287437,0.77604,0.383979
1917,-0.332969,0.156778,0.500096
1918,0.015038,-0.065875,0.62233
1919,0.45505,-0.026863,0.720746
1920,0.027123,-0.330248,0.866726
1921,-0.149774,-0.39801,0.863051
1922,-0.255502,-0.511394,0.925625
1923,-0.450022,-0.469198,0.946696
1924,-0.42111,-0.466851,0.960063
1925,-0.235836,-0.358378,0.994341
1926,-0.309533,-0.279831,0.736393
1927,-0.313577,-0.291306,0.57663
1928,-0.205102,-0.214028,0.202623
1929,-0.020533,0.387212,-1.159192
1930,0.8057,1.418546,-1.205167
1931,0.894787,1.547664,-1.000536
1932,0.241293,0.172521,-0.102006
1933,-0.332822,-0.375398,-0.3838
1934,-0.4067,-0.18717,-0.001064
1935,0.062959,0.25974,1.500419
1936,0.505766,2.077217,0.42014
1937,-0.231641,1.275905,1.187858
1938,-1.25188,-1.151484,1.437907
1939,-0.829825,-0.9562,0.720149
1940,-0.302365,0.410488,1.443868
1941,-0.04947,0.71568,1.200092
1942,0.194406,0.48522,0.93017
1943,0.763557,0.593837,0.480885
1944,0.971332,0.449238,0.221406
1945,0.298702,-0.216031,0.018218
1946,-0.143125,-0.233768,0.018252
1947,-0.19244,-0.22999,0.220785
1948,-0.381703,-0.298625,0.401446
1949,-0.337206,-0.114259,0.119506
1950,-0.271932,0.005904,-0.058618
1951,-0.26632,-0.010814,-0.130373
1952,-0.173132,-0.021769,0.098475
1953,-0.031368,0.004009,0.043222
1954,-0.110096,0.068327,-0.294112
1955,0.177446,0.073416,0.046949
1956,0.583666,0.212196,0.072504
1957,0.471192,0.025159,0.003895
1958,0.634971,0.101158,0.245291
1959,0.617893,0.125957,-0.053242
1960,0.368424,0.125792,-0.115773
1961,0.290468,0.190071,0.016079
1962,0.175916,0.334946,-0.027093
1963,-0.071001,0.597781,0.067733
1964,-0.267364,0.412583,0.569122
1965,-0.199868,0.508608,0.614735
1966,-0.228205,0.95435,0.363526
1967,-0.225225,1.261399,0.42796
1968,-0.305893,1.096134,0.435614
1969,-0.217449,0.516077,0.350446
1970,-0.133048,0.03721,0.668553
1971,0.269923,-0.07727,0.578681
1972,0.265621,-0.153381,0.787457
1973,-0.054982,-0.23211,0.866848
1974,-0.2553,-0.428906,0.952515
1975,-0.357479,-0.570913,0.993285
1976,-0.418928,-0.505505,0.9469
1977,-0.386449,-0.312124,0.956808
1978,-0.346877,-0.313823,0.873672
1979,-0.309564,-0.309891,0.743338
1980,-0.300095,-0.305857,0.433228
1981,-0.118321,-0.038626,-0.323027
1982,0.393368,0.697264,-1.333383
1983,0.93643,1.845677,-1.343587
1984,0.732077,1.518468,-1.119713
1985,-0.064408,0.028226,-0.247685
1986,-0.423979,0.310623,-0.222002
1987,-0.180241,0.772769,0.763668
1988,0.570705,1.50567,1.102444
1989,-1.218096,-0.562357,1.260929
1990,-1.520697,-0.810638,0.976624
1991,-1.30889,-0.8468,0.445008
1992,-0.256705,0.457186,1.398915
1993,-0.128594,0.588373,1.176366
1994,0.177972,0.602784,1.010441
1995,0.98458,0.28586,0.060608
1996,0.436694,-0.003958,0.134398
1997,0.060782,-0.079868,0.195077
1998,-0.137083,-0.118637,0.251448
1999,-0.124346,-0.177384,0.181615
2000,-0.143715,-0.173097,0.133005
2001,-0.33556,-0.138575,0.166977
2002,-0.221401,-0.123691,0.085108
2003,-0.165138,-0.060053,0.039717
2004,-0.133616,-0.119105,-0.013768
2005,-0.06051,-0.019564,0.032886
2006,-0.09379,0.075077,-0.094556
2007,-0.019304,0.163515,-0.217824
2008,0.138424,0.116734,-0.16232
2009,0.467759,0.113148,0.098121
2010,0.512777,0.045534,0.171113
2011,0.536298,0.043914,0.140529
2012,0.484372,0.109969,-0.017222
2013,0.252692,0.164582,-0.143995
2014,0.193684,0.155549,-0.034252
2015,-0.086913,0.382419,-0.204046
2016,-0.212545,0.490694,0.291579
2017,-0.183029,0.499972,0.572375
2018,-0.247253,0.541457,0.438915
2019,-0.116894,0.955935,0.340505
2020,-0.114195,1.114953,0.489056
2021,-0.145993,0.998249,0.423843
2022,-0.195538,0.441048,0.378685
2023,-0.253447,0.146725,0.682774
2024,0.197175,-0.025139,0.583113
2025,0.279661,-0.172352,0.750836
2026,-0.102392,-0.28685,0.820688
2027,-0.230616,-0.410227,0.917433
2028,-0.423391,-0.583596,0.947041
2029,-0.427483,-0.533052,0.928117
2030,-0.39402,-0.418755,0.928887
2031,-0.299732,-0.296813,0.841305
2032,-0.334045,-0.317092,0.713297
2033,-0.365274,-0.29612,0.569311
2034,0.267802,0.692035,-1.200073
2035,0.736054,1.152594,-1.234951
2036,1.053953,1.776636,-1.349575
2037,-0.049731,0.002337,-0.155664
2038,-0.257854,-0.162018,-0.246824
2039,-0.386811,-0.286775,-0.236068
2040,0.207323,0.595593,1.624695
2041,0.5329,1.292249,1.267873
2042,0.939492,2.883054,-0.71704
2043,-1.379595,-1.175604,1.035147
2044,-1.229942,-1.180969,0.36045
2045,-0.561897,-0.457678,1.163649
2046,-0.026789,0.680521,1.131516
2047,0.143834,0.649242,1.075986
2048,1.026514,0.593985,0.995273
2049,1.102591,0.365619,-0.171179
2050,0.342737,0.064754,-0.09288
2051,-0.173497,-0.083565,0.341088
2052,-0.37632,-0.153334,0.19142
2053,-0.183012,-0.226707,0.219167
2054,-0.147795,-0.21479,0.294089
2055,-0.225749,-0.194024,0.165297
2056,-0.272883,-0.127527,-0.010861
2057,-0.198303,0.008452,-0.208188
2058,-0.050135,-0.041571,0.010757
2059,-0.024851,-0.029066,0.01139
2060,-0.033816,0.082888,-0.224693
2061,0.327875,0.110559,0.006017
2062,0.571121,0.157236,0.079063
2063,0.544671,0.071247,0.207929
2064,0.540917,0.114478,0.110428
2065,0.443783,0.16291,-0.053953
2066,0.162396,0.205386,-0.142301
2067,0.051014,0.173278,-0.005199
2068,0.005722,0.208209,-0.138232
2069,0.106886,0.419608,0.21471
2070,0.023139,0.36761,0.737626
2071,-0.218578,0.559341,0.761275
2072,-0.339553,1.060426,0.180473
2073,-0.416829,1.167796,0.434498
2074,-0.401492,1.148745,0.547885
2075,-0.1827,0.426071,0.341434
2076,-0.103278,0.128924,0.551423
2077,0.281619,-0.084774,0.613294
2078,0.314755,-0.122074,0.788083
2079,-0.07007,-0.217603,0.914915
2080,-0.166867,-0.271855,0.913452
2081,-0.2711,-0.584867,0.980713
2082,-0.442651,-0.40429,0.888157
2083,-0.369551,-0.304008,0.907049
2084,-0.314777,-0.313109,0.911901
2085,-0.333909,-0.26921,0.652711
2086,-0.325875,-0.241937,0.498463
2087,-0.279146,-0.140234,0.203319
2088,0.955334,1.618826,-1.356874
2089,0.94869,1.967066,-1.469602
2090,0.60217,1.161167,-0.893839
2091,-0.390466,-0.091211,-0.280787
2092,-0.453868,0.111865,-0.055744
2093,0.187355,0.592483,1.544625
2094,0.691225,2.023691,-0.202873
2095,-0.761765,-0.089336,1.566961
2096,-1.319353,-0.9289,0.732619
2097,-0.300331,-0.110233,1.448791
2098,-0.246963,0.374555,1.460726
2099,0.038261,0.593208,1.094165
2100,0.922675,0.58532,0.736156
2101,1.02581,0.624431,0.448714
2102,0.344135,0.099781,0.128264
2103,-0.086018,0.080207,0.250395
2104,-0.172548,0.010487,0.272774
2105,-0.274687,-0.207583,0.099462
2106,-0.22011,-0.259873,0.253676
2107,-0.108462,-0.208265,0.42299
2108,-0.160232,-0.100641,0.307766
2109,-0.240867,-0.083496,-0.170785
2110,-0.154372,0.008282,-0.212742
2111,-0.116366,-0.020873,0.05382
2112,-0.158594,0.077504,0.09854
2113,-0.065378,0.236004,-0.198058
2114,0.242926,0.219302,-0.170292
2115,0.556196,0.175044,-0.009277
2116,0.521195,0.082406,0.039308
2117,0.547522,0.08498,0.065321
2118,0.448241,0.123613,-0.029795
2119,0.357511,0.150044,-0.095519
2120,0.080352,0.208324,-0.084525
2121,0.061229,0.340218,-0.058984
2122,0.001302,0.394469,0.050133
2123,-0.059764,0.365526,0.873693
2124,-0.243158,0.621562,0.613881
2125,-0.244703,0.887228,0.307486
2126,-0.24715,1.28752,0.506987
2127,-0.193176,0.898162,0.429954
2128,-0.147353,0.646653,0.391954
2129,0.03749,0.065867,0.600564
2130,0.339134,-0.155771,0.748879
2131,0.223716,-0.201483,0.868043
2132,-0.279938,-0.377037,0.892123
2133,-0.280359,-0.552425,1.022352
2134,-0.39183,-0.618775,1.032532
2135,-0.457286,-0.292701,0.970021
2136,-0.325518,-0.245122,0.879021
2137,-0.309064,-0.232913,0.809043
2138,-0.330707,-0.229051,0.576534
2139,-0.209506,-0.039881,0.070602
2140,-0.112232,0.243862,-0.6732
2141,1.00885,1.788841,-1.343426
2142,0.302442,0.331848,-0.32862
2143,0.049335,-0.026886,-0.097005
2144,-0.40876,-0.235768,-0.296323
2145,-0.100076,0.350298,1.185832
2146,0.254259,0.509012,1.902258
2147,0.40254,1.374923,1.065562
2148,-1.299261,-0.740555,1.361198
2149,-1.306741,-0.970332,0.738173
2150,-0.830541,-0.679832,0.761027
2151,-0.019262,0.573489,1.224385
2152,0.391054,0.503865,1.168637
2153,0.946425,0.434131,1.086393
2154,0.527534,0.147525,-0.05222
2155,0.144929,0.080965,0.01198
2156,-0.032188,-0.039843,0.265357
2157,-0.144088,-0.235504,0.333758
2158,-0.205574,-0.301167,0.345258
2159,-0.385692,-0.274196,0.195858
2160,-0.335564,-0.081899,0.06242
2161,-0.342933,-0.033465,0.016713
2162,-0.250286,-0.003324,-0.091971
2163,-0.087273,0.01219,0.086797
2164,-0.064708,0.050202,0.0298
2165,-0.05985,0.109272,-0.11484
2166,0.431234,0.161458,0.067326
2167,0.526687,0.189412,0.056695
2168,0.545386,0.105013,0.246509
2169,0.66615,0.132232,0.088271
2170,0.429072,0.164992,-0.128715
2171,0.066746,0.213386,-0.331912
2172,0.314644,0.091331,0.059849
2173,0.198301,0.006421,0.01217
2174,0.10258,0.391801,0.278732
2175,-0.022974,0.558978,0.784453
2176,-0.270674,0.670928,0.407193
2177,-0.306958,0.932265,0.374608
2178,-0.41106,1.182889,0.435361
2179,-0.373253,0.887487,0.423071
2180,-0.26796,0.598344,0.422436
2181,0.187155,0.043738,0.53526
2182,0.427841,-0.015361,0.649997
2183,0.423884,-0.089299,0.792506
2184,-0.187942,-0.460972,0.95731
2185,-0.159674,-0.439663,0.993224
2186,-0.412023,-0.60868,0.979779
2187,-0.488921,-0.294229,0.960676
2188,-0.353906,-0.277853,0.965186
2189,-0.289335,-0.202829,0.893617
2190,-0.325386,-0.187575,0.615238
2191,-0.316544,-0.164949,0.472213
2192,-0.152517,0.09654,-0.335045
2193,1.015028,1.49553,-1.312233
2194,1.242529,2.020877,-1.508372
2195,0.41251,0.549679,-0.288014
2196,-0.192079,-0.205208,-0.13337
2197,-0.515309,0.01627,0.029675
2198,-0.324859,0.489535,1.140318
2199,0.458133,1.205084,0.93638
2200,0.207345,1.287835,1.163582
2201,-1.332361,-0.852947,0.837345
2202,-0.429121,-0.053248,1.366679
2203,-0.282897,0.411431,1.459735
2204,0.059548,0.576989,1.151198
2205,0.956939,0.422533,1.022284
2206,0.979639,0.615261,0.618236
2207,0.406023,0.123047,0.006596
2208,-0.014911,0.077287,0.146583
2209,-0.086486,0.015922,0.183629
2210,-0.186355,-0.212225,0.273747
2211,-0.272747,-0.263149,0.257994
2212,-0.318683,-0.173413,0.234722
2213,-0.227198,-0.135852,0.129376
2214,-0.153744,-0.022061,0.032188
2215,-0.157328,-0.04969,-0.090614
2216,-0.119875,-0.012592,-0.078401
2217,-0.092864,0.103472,-0.039778
2218,-0.03368,0.173882,-0.131473
2219,0.409948,0.165216,-0.003512
2220,0.473904,0.090596,0.099608
2221,0.508114,0.078417,0.13496
2222,0.599243,0.02184,0.069804
2223,0.358049,0.187107,-0.083214
2224,0.345209,0.195128,-0.081891
2225,0.025961,0.422471,0.057174
2226,-0.375501,0.489076,0.032631
2227,-0.313488,0.494769,0.31466
2228,-0.155162,0.423316,0.576392
2229,-0.216637,0.824146,0.377585
2230,-0.21342,1.146093,0.479961
2231,-0.279274,1.418495,0.400527
2232,-0.319736,0.762662,0.439649
2233,-0.253628,0.277244,0.404958
2234,-0.012939,0.10647,0.708943
2235,0.263612,0.017723,0.657556
2236,0.038834,-0.129206,0.795971
2237,-0.191838,-0.282095,0.883612
2238,-0.34295,-0.510916,0.947814
2239,-0.452898,-0.594845,0.961157
2240,-0.51207,-0.428056,0.943043
2241,-0.367778,-0.333388,0.925582
2242,-0.339617,-0.271035,0.854898
2243,-0.388867,-0.271283,0.625615
2244,-0.296933,-0.166663,0.255393
2245,0.0888,0.37368,-1.222725
2246,1.02166,2.008421,-1.3628
2247,0.275295,0.619071,-0.435431
2248,-0.271355,-0.148644,-0.168852
2249,-0.595948,-0.377082,-0.131228
2250,-0.31458,0.185692,1.298343
2251,0.070851,0.86052,1.692487
2252,0.793133,3.490065,-0.51021
2253,-0.890955,-0.653412,2.066996
2254,-1.263233,-1.085871,1.427345
2255,-0.437404,-0.01784,1.555504
2256,-0.281154,0.587975,1.501514
2257,-0.112693,0.648572,1.192186
2258,0.858552,0.692984,0.944052
2259,0.910918,0.470399,0.107945
2260,0.303841,0.047901,-0.021268
2261,-0.063831,-0.007605,0.118672
2262,-0.224122,-0.10304,0.136776
2263,-0.203695,-0.183661,0.29068
2264,-0.272408,-0.220002,0.426577
2265,-0.282974,-0.107527,0.038772
2266,-0.292399,-0.107589,0.002292
2267,-0.247322,0.065396,-0.154979
2268,-0.086146,-0.041072,-0.001124
2269,-0.087692,-0.047125,0.010505
2270,-0.086035,0.181538,-0.092379
2271,0.247612,0.249501,-0.241338
2272,0.444355,0.247249,-0.106832
2273,0.491439,0.142089,-0.020393
2274,0.479778,-0.044667,0.082189
2275,0.477987,-0.043452,0.082292
2276,0.354877,0.148135,-0.168466
2277,0.22662,0.46633,0.133162
2278,0.212284,0.477726,0.173641
2279,-0.423885,0.677983,0.180115
2280,-0.300193,0.378528,0.577575
2281,-0.259593,0.544701,0.530554
2282,-0.186448,1.148162,0.413509
2283,-0.249961,1.37812,0.35196
2284,-0.278126,0.896353,0.478078
2285,-0.257079,0.343433,0.371791
2286,-0.189871,0.098653,0.63864
2287,0.269936,-0.071562,0.591367
2288,0.210581,-0.193062,0.797782
2289,-0.247517,-0.313035,0.885263
2290,-0.288783,-0.415222,0.973305
2291,-0.490425,-0.532381,0.951687
2292,-0.443938,-0.322112,0.956194
2293,-0.39156,-0.295914,0.977098
2294,-0.421025,-0.245519,0.827091
2295,-0.397494,-0.189639,0.58607
2296,-0.334258,-0.168851,0.437121
2297,0.057455,0.569378,-1.17245
2298,0.901983,1.696123,-1.418739
2299,0.945034,2.184004,-1.41418
2300,-0.061476,0.029265,-0.138276
2301,-0.549598,-0.000215,-0.31042
2302,-0.540887,0.324478,0.089986
2303,0.113496,0.89593,1.641516
2304,0.291381,1.544461,0.091749
2305,-0.751898,-0.45276,1.806797
2306,-0.821414,-0.68721,0.671672
2307,-0.077436,0.189128,1.551524
2308,-0.202842,0.351624,1.445962
2309,0.216359,0.592146,0.899567
2310,0.94958,0.772896,0.583881
2311,0.707925,0.403766,0.214249
2312,0.088443,0.073394,0.294358
2313,-0.06674,-0.117017,0.309605
2314,-0.147554,-0.166942,0.255476
2315,-0.201061,-0.107427,0.086358
2316,-0.296253,-0.102938,0.188172
2317,-0.322244,-0.130603,0.189415
2318,-0.33602,-0.138051,0.144002
2319,-0.283665,0.080333,-0.064077
2320,-0.190873,0.090694,-0.096771
2321,-0.072052,0.034098,-0.136045
2322,-0.087736,0.050808,-0.059712
2323,-0.020565,0.038384,0.030137
2324,0.164344,0.129998,0.058665
2325,0.369347,0.263094,0.216115
2326,0.377402,0.25486,0.223629
2327,0.343011,0.275185,0.126919
2328,0.368521,0.126146,-0.14608
2329,0.3995,0.075554,-0.142974
2330,0.480382,0.126958,0.05707
2331,-0.05241,0.424083,0.142206
2332,-0.049134,0.436367,0.209791
2333,-0.472433,0.500256,0.437129
2334,-0.292472,0.922373,0.377302
2335,-0.237652,1.104771,0.478332
2336,-0.180789,1.000963,0.573467
2337,-0.257982,0.329674,0.399999
2338,-0.16045,0.245645,0.483132
2339,0.241957,-0.041733,0.616782
2340,0.180749,-0.089121,0.761387
2341,0.025432,-0.080431,0.871521
2342,-0.319553,-0.478155,0.8963
2343,-0.374145,-0.552535,0.922853
2344,-0.419018,-0.55005,0.935016
2345,-0.389374,-0.277916,0.907822
2346,-0.347714,-0.288943,0.876034
2347,-0.36565,-0.270907,0.817723
2348,-0.313192,-0.206486,0.488549
2349,-0.15515,0.066785,-0.296542
2350,0.03635,0.37494,-1.067603
2351,0.895513,1.820767,-1.224185
2352,0.413383,0.750035,-0.473076
2353,0.174247,0.27312,-0.093239
2354,-0.67716,-0.199924,-0.220807
2355,-0.414501,0.3873,0.807036
2356,-0.176331,0.507468,1.397972
2357,0.845628,2.963817,-0.628781
2358,-0.786954,-0.59876,2.054304
2359,-1.300325,-1.034606,1.608909
2360,-0.350358,-0.003305,1.462795
2361,-0.266933,0.500535,1.445245
2362,-0.1353,0.599848,1.290297
2363,0.888184,0.623465,1.059046
2364,0.899549,0.660565,0.300273
2365,0.474986,0.078065,-0.064824
2366,0.045788,0.076413,0.040455
2367,-0.317225,-0.079935,0.271421
2368,-0.31564,-0.088367,0.283305
2369,-0.252836,-0.172195,0.307514
2370,-0.285769,-0.082491,0.334204
2371,-0.27477,-0.112847,0.154686
2372,-0.285778,0.033341,-0.225611
2373,-0.16198,0.02127,-0.128154
2374,-0.162903,0.021989,0.056838
2375,-0.195778,0.06971,0.078789
2376,-0.122021,0.19618,-0.245576
2377,0.13387,0.198139,-0.188162
2378,0.482737,0.0217,0.005903
2379,0.471635,0.082232,0.117093
2380,0.394116,0.048121,-0.10081
2381,0.282898,0.105582,-0.191263
2382,0.087717,0.128052,-0.177216
2383,-0.023894,0.303702,-0.22653
2384,0.027578,0.301724,-0.068361
2385,0.062344,0.555656,0.460873
2386,-0.01974,0.572695,0.730327
2387,-0.377947,0.860691,0.274555
2388,-0.277263,1.261895,0.341125
2389,-0.277573,1.416229,0.483789
2390,-0.251474,0.822595,0.35024
2391,-0.209304,0.536332,0.321945
2392,-0.305631,0.219115,0.571446
2393,0.317045,0.006745,0.580473
2394,0.122878,-0.100453,0.770962
2395,-0.084656,-0.16711,0.861575
2396,-0.421963,-0.435915,0.979541
2397,-0.449997,-0.64647,1.041487
2398,-0.52591,-0.562582,1.019204
2399,-0.326347,-0.313053,1.019645
2400,-0.407711,-0.239391,0.91919
2401,-0.471352,-0.228278,0.851842
2402,-0.346577,-0.180956,0.42024
2403,-0.117103,0.314655,-0.943257
2404,0.188513,0.754698,-1.243861
2405,0.696843,1.849223,-1.225586
2406,0.082675,0.211447,-0.211117
2407,-0.134123,0.083429,-0.211715
2408,-0.285236,1.232222,0.117403
2409,0.672427,1.374819,1.560831
2410,-0.366869,-0.325634,1.642552
2411,-1.604425,-0.616467,0.844956
2412,0.072512,0.300169,2.058558
2413,0.055907,0.481619,1.940084
2414,0.038731,0.593929,1.18439
2415,0.810785,0.923109,0.397932
2416,0.775599,0.912959,0.347119
2417,0.145833,0.186739,0.403577
2418,-0.071987,0.08765,0.511727
2419,-0.040595,-0.010963,0.456527
2420,-0.116344,-0.068932,0.263211
2421,-0.130018,-0.0663,0.100938
2422,-0.13912,-0.087965,0.087048
2423,-0.31518,-0.176852,0.131298
2424,-0.424087,-0.134077,0.250177
2425,-0.290071,-0.100851,0.034357
2426,-0.223752,0.045157,-0.147315
2427,-0.051648,0.02249,-0.099472
2428,-0.045598,0.058695,-0.115795
2429,-0.089848,0.146843,-0.179783
2430,0.339928,0.221432,0.051282
2431,0.391737,0.249712,0.090104
2432,0.405823,0.114684,0.223947
2433,0.430961,0.143335,0.135293
2434,0.383529,0.218399,-0.133376
2435,0.299644,0.165087,-0.113733
2436,0.22272,0.17249,0.161876
2437,0.052034,0.366107,-0.000329
2438,-0.169853,0.585216,0.399849
2439,-0.278398,0.490333,0.61809
2440,-0.309693,0.618916,0.550364
2441,-0.191478,1.139344,0.463464
2442,-0.217915,1.255061,0.435703
2443,-0.220328,1.017599,0.396576
2444,-0.348083,0.200323,0.440355
2445,0.073034,-0.020291,0.59634
2446,0.312892,0.040677,0.667152
2447,-0.082062,-0.079889,0.82943
2448,-0.219014,-0.158206,0.844504
2449,-0.288086,-0.358011,1.01737
2450,-0.453999,-0.412795,0.9315
2451,-0.457619,-0.305444,0.919007
2452,-0.437472,-0.278201,0.929313
2453,-0.364121,-0.227103,0.83965
2454,-0.362879,-0.223143,0.696119
2455,-0.388358,-0.190039,0.529147
2456,0.058279,0.638231,-1.136106
2457,0.882872,1.706926,-1.241391
2458,0.871017,1.695887,-1.260278
2459,-0.015478,0.011854,-0.025944
2460,-0.346297,0.170949,-0.344143
2461,-0.342391,0.175298,-0.337394
2462,0.636765,1.099602,1.890404
2463,-0.534003,0.367704,1.572333
2464,-0.516504,0.391653,1.606667
2465,-1.603232,-1.046066,0.312112
2466,-0.339235,0.55972,1.646976
2467,-0.273496,0.608064,1.34828
2468,0.049073,0.69511,1.174905
2469,1.062082,0.725933,0.944784
2470,1.021144,0.726916,0.896175
2471,0.540158,0.080426,-0.250434
2472,-0.163205,-0.089734,0.146147
2473,-0.26347,-0.094837,0.170888
2474,-0.34669,-0.212764,0.26898
2475,-0.302879,-0.195416,0.257078
2476,-0.326122,-0.126297,0.163963
2477,-0.219293,0.111286,-0.170942
2478,-0.083154,-0.002072,-0.011427
2479,-0.024634,-0.042135,0.037651
2480,-0.206131,0.128192,-0.143567
2481,-0.146283,0.138037,-0.196206
2482,0.060515,0.151645,-0.024113
2483,0.42474,0.057821,0.060534
2484,0.429634,0.05859,0.079039
2485,0.436165,0.056279,0.156243
2486,0.422824,0.139732,0.069482
2487,0.371701,0.202281,0.090176
2488,0.359118,0.405946,0.395465
2489,-0.442711,0.678664,-0.208344
2490,-0.787685,0.65488,0.163248
2491,-0.602755,0.494535,0.418994
2492,-0.161754,0.501727,0.571993
2493,-0.076516,1.085965,0.400403
2494,-0.122203,1.201498,0.461157
2495,-0.240481,1.035225,0.500965
2496,-0.34214,0.361219,0.374042
2497,-0.256486,0.240327,0.440454
2498,-0.01741,-0.048115,0.609919
2499,0.050071,-0.038305,0.745518
2500,-0.015541,-0.012627,0.846479
2501,-0.326078,-0.337575,0.900493
2502,-0.495199,-0.567701,0.889908
2503,-0.509103,-0.481544,0.88016
2504,-0.43674,-0.300264,0.845294
2505,-0.395481,-0.267104,0.774849
2506,-0.394713,-0.271405,0.772043
2507,-0.322481,-0.152387,0.359258
2508,-0.131199,0.199495,-0.556952
2509,-0.156414,0.179295,-0.591129
2510,0.775225,1.722384,-1.262
2511,0.151869,0.61161,-0.334157
2512,0.154763,0.622837,-0.321584
2513,-0.402653,0.394067,-0.035487
2514,-0.106157,1.023112,0.868187
2515,-0.111035,1.00969,0.852496
2516,-0.600084,-0.160819,1.524683
2517,-1.404956,-0.708403,0.715335
2518,-0.963701,-0.51727,0.63858
2519,-0.200075,0.360321,1.880861
2520,-0.239125,0.544339,1.26652
2521,0.216284,0.662711,0.885439
2522,1.035715,0.63442,0.517984
2523,0.155787,0.243102,0.28644
2524,-0.083869,0.158817,0.306785
2525,-0.155132,-0.052355,0.206056
2526,-0.259355,-0.186594,0.152773
2527,-0.252664,-0.202935,0.201775
2528,-0.327645,-0.244364,0.27479
2529,-0.313435,-0.044962,0.037716
2530,-0.299642,0.049009,-0.039721
2531,-0.152132,0.018935,-0.105128
2532,-0.102959,0.054037,0.039866
2533,-0.136273,0.082636,-0.000531
2534,-0.200915,0.142416,-0.11154
2535,0.12812,0.134345,0.101728
2536,0.345724,0.121456,0.023067
2537,0.372551,0.143739,0.091437
2538,0.40527,0.128102,0.110426
2539,0.465849,0.194266,-0.064716
2540,0.346894,0.15988,-0.082335
2541,0.207161,0.234456,-0.095045
2542,0.140182,0.304225,0.070426
2543,-0.241922,0.369744,0.087463
2544,-0.313122,0.661799,0.41152
2545,-0.28525,0.514846,0.650933
2546,-0.187447,0.939134,0.454583
2547,-0.191515,1.324691,0.307285
2548,-0.195655,1.376834,0.473223
2549,-0.203341,0.836513,0.471578
2550,-0.296886,0.254404,0.459412
2551,-0.270228,0.104989,0.556808
2552,0.210805,0.062777,0.695579
2553,-0.055397,-0.047055,0.854403
2554,-0.200715,-0.124346,0.942421
2555,-0.453964,-0.404887,1.033422
2556,-0.593039,-0.326598,0.969239
2557,-0.560335,-0.319281,0.992397
2558,-0.381194,-0.12419,0.935708
2559,-0.379398,-0.122915,0.864244
2560,-0.434129,-0.145314,0.608273
2561,-0.386699,-0.053224,0.220419
2562,0.062741,0.315789,-0.990026
2563,0.743147,1.18092,-1.307009
2564,0.672649,1.193171,-1.124947
2565,0.267754,0.390912,-0.264663
2566,-0.227266,-0.058991,-0.244286
2567,-0.298152,0.705084,0.17726
2568,0.365944,1.19632,1.154509
2569,0.178011,1.060606,0.601133
2570,-1.021733,-0.322939,1.389285
2571,-0.260969,0.004423,1.284551
2572,-0.013392,0.402694,1.741233
2573,-0.117968,0.582384,1.033736
2574,0.541229,0.493222,0.710095
2575,0.723705,0.58954,0.643062
2576,0.425132,0.439552,0.421981
2577,-0.126661,0.043886,0.43277
2578,-0.164846,0.030681,0.362288
2579,0.059773,-0.07663,0.29073
2580,-0.07945,-0.186053,0.202642
2581,-0.266382,-0.176761,0.195071
2582,-0.479908,-0.017334,-0.001233
2583,-0.352915,-0.009332,0.023025
2584,-0.309103,0.048931,-0.027019
2585,0.021169,-0.075442,0.055139
2586,-0.000858,0.035909,0.063105
2587,-0.063263,0.085527,-0.058186
2588,0.039854,0.152564,0.106034
2589,0.325263,0.299621,0.122483
2590,0.382054,0.35568,0.083139
2591,0.31571,0.342107,0.037565
2592,0.174735,0.271254,-0.012949
2593,0.251292,0.309819,-0.006642
2594,0.467135,0.156116,-0.078524
2595,0.448548,0.305972,0.073649
2596,0.014394,0.30556,-0.00596
2597,-0.100373,0.412202,0.640647
2598,-0.238393,0.44482,0.677096
2599,-0.232129,0.789265,0.376508
2600,-0.14869,0.941499,0.562991
2601,-0.011924,1.053886,0.571053
2602,-0.163227,0.629464,0.595833
2603,-0.050579,0.210007,0.558835
2604,0.07125,0.173135,0.721995
2605,0.026327,-0.033961,0.834925
2606,-0.061694,-0.138033,0.860133
2607,-0.109929,-0.288479,1.025287
2608,-0.295594,-0.397922,1.066608
2609,-0.457674,-0.216511,1.063154
2610,-0.379081,-0.276593,1.003375
2611,-0.261531,-0.219254,0.908433
2612,-0.283797,-0.280835,0.667717
2613,-0.146324,0.030769,-0.234575
2614,0.094596,0.26815,-0.66142
2615,0.52643,0.894266,-0.830208
2616,0.306429,0.6817,-0.623322
2617,0.22686,0.521226,-0.356451
2618,0.080465,-0.007404,0.002563
2619,-0.159396,0.354847,0.451457
2620,-0.103887,0.699884,1.111331
2621,0.126219,1.552282,0.614926
2622,-0.581146,-0.19772,1.600874
2623,-0.976535,-0.96091,1.554804
2624,-0.121331,0.399848,1.726207
2625,-0.183692,0.477853,1.396279
2626,-0.074346,0.485295,1.069824
2627,0.910865,0.54476,0.507961
2628,0.986008,0.520988,0.423645
2629,0.374061,0.267159,0.450297
2630,-0.069055,0.060387,0.382236
2631,-0.023808,0.07533,0.293499
2632,0.032388,-0.036064,0.242766
2633,-0.213317,-0.165558,0.222726
2634,-0.353169,-0.128958,0.252507
2635,-0.335209,-0.084793,0.320992
2636,-0.30617,-0.066629,0.122829
2637,-0.329356,-0.034271,-0.082823
2638,-0.096311,-0.048125,-0.061603
2639,0.12093,-0.028369,0.205666
2640,0.008583,0.150777,-0.082215
2641,0.161026,0.188982,0.019311
2642,0.367655,0.334751,0.161696
2643,0.425284,0.261639,0.139237
2644,0.535242,0.212883,0.248748
2645,0.310646,0.188416,-0.031804
2646,0.196584,0.174644,-0.031186
2647,0.278967,0.044579,-0.175983
2648,0.521466,0.195745,0.201743
2649,0.359307,0.169475,0.205387
2650,0.258703,0.277567,0.598342
2651,-0.089762,0.42186,0.949971
2652,-0.337932,1.019294,0.517832
2653,-0.331024,1.04612,0.583061
2654,-0.239803,1.157552,0.571477
2655,-0.285089,0.36249,0.534769
2656,-0.273725,0.230075,0.599788
2657,0.104641,0.167032,0.660011
2658,0.447544,-0.073211,0.887287
2659,0.306232,-0.160799,0.956459
2660,-0.005616,-0.345656,0.928755
2661,-0.288743,-0.566519,1.100672
2662,-0.298986,-0.550994,1.125446
2663,-0.327321,-0.341808,1.072274
2664,-0.251156,-0.173223,0.968909
2665,-0.287909,-0.190466,0.875111
2666,-0.257829,-0.221872,0.632243
2667,-0.12209,0.040291,-0.086177
2668,0.199999,0.741728,-0.983771
2669,0.845602,1.569362,-0.976338
2670,0.593124,0.86373,-0.647413
2671,0.452424,0.456527,-0.214484
2672,-0.273872,-0.311701,-0.381247
2673,-0.158199,0.366712,0.263561
2674,0.065018,0.63055,1.284033
2675,0.759669,2.671138,-0.750643
2676,-0.76864,-0.231892,1.662605
2677,-1.114071,-0.963795,1.495461
2678,-0.087321,0.247053,1.407328
2679,-0.154068,0.392532,1.23394
2680,-0.045893,0.361617,1.097913
2681,0.542085,0.612683,1.027596
2682,0.803115,0.878185,0.671661
2683,0.761032,0.687243,0.512444
2684,0.426481,-0.086912,0.362694
2685,-0.011871,-0.323968,0.371147
2686,-0.305811,-0.197945,0.375238
2687,-0.467409,-0.106386,0.231232
2688,-0.492791,-0.00631,0.217068
2689,-0.451662,0.130563,0.179849
2690,-0.303847,0.044769,0.068937
2691,-0.193689,-0.100153,0.120707
2692,0.017592,-0.07519,0.179175
2693,0.080923,0.021368,0.087423
2694,0.02734,0.065941,-0.017509
2695,0.324492,0.157894,0.172327
2696,0.572488,0.291906,0.193842
2697,0.461249,0.258277,0.168579
2698,0.417255,0.252218,0.080365
2699,0.428487,0.244341,0.039732
2700,0.350697,0.177422,-0.072019
2701,0.336144,0.115237,0.102329
2702,0.29192,0.256669,0.021646
2703,0.067949,0.22529,0.181762
2704,0.017788,0.318395,0.640133
2705,-0.151209,0.450498,0.688812
2706,-0.239713,0.891347,0.282806
2707,-0.203733,1.056074,0.592772
2708,-0.208328,1.379955,0.584188
2709,-0.274228,0.26368,0.455899
2710,-0.157282,0.166819,0.682893
2711,0.319451,0.035719,0.624174
2712,0.267778,-0.117185,0.901088
2713,0.066734,-0.141102,0.948776
2714,-0.127057,-0.212597,1.05609
2715,-0.302425,-0.493859,1.014425
2716,-0.28172,-0.42984,1.017754
2717,-0.315215,-0.259229,1.023059
2718,-0.23114,-0.209189,0.953104
2719,-0.235708,-0.206415,0.894962
2720,-0.264765,-0.251685,0.63522
2721,-0.150132,0.0451,-0.18176
2722,0.029585,0.260513,-0.766866
2723,0.935462,1.849722,-1.198964
2724,0.927588,1.828894,-1.123758
2725,-0.050649,0.146339,-0.17235
2726,-0.196695,0.526728,-0.080051
2727,-0.138286,0.717579,0.275734
2728,0.513402,0.944798,1.097201
2729,-0.668373,-0.215902,1.414157
2730,-1.33879,-0.397841,0.667407
2731,-0.335792,0.085415,1.420181
2732,-0.223721,0.405732,1.312341
2733,-0.07149,0.48669,1.068982
2734,0.13275,0.551207,0.998915
2735,0.887231,0.546399,0.89096
2736,0.919134,0.419219,0.294453
2737,0.455133,0.006016,0.086594
2738,0.053155,-0.089071,0.065776
2739,-0.142994,-0.134844,0.280696
2740,-0.237542,-0.211304,0.246008
2741,-0.381518,-0.158687,0.154731
2742,-0.246094,0.065553,0.006137
2743,-0.051607,-0.029105,0.094807
2744,-0.079802,-0.036734,0.177898
2745,-0.158248,-0.070197,0.038332
2746,-0.111897,0.063408,0.072983
2747,-0.09746,0.062083,0.029335
2748,0.234286,0.050454,0.165588
2749,0.411805,0.133733,0.188292
2750,0.510094,0.104098,0.302896
2751,0.438141,0.129638,0.158328
2752,0.438588,0.128633,0.152299
2753,0.317432,0.243202,0.00175
2754,0.311354,0.193056,0.200551
2755,0.338992,0.240878,0.191523
2756,0.096186,0.212205,0.051803
2757,-0.221895,0.400884,0.727392
2758,-0.256204,0.408341,0.880695
2759,-0.275599,0.754328,0.59723
2760,-0.26956,1.215021,0.555544
2761,-0.254543,1.346311,0.586984
2762,-0.280391,0.866835,0.5228
2763,-0.216856,0.144283,0.705041
2764,0.007801,0.065547,0.752728
2765,0.387598,0.030844,0.769203
2766,0.03863,-0.178169,0.853834
2767,-0.087827,-0.224703,0.981625
2768,-0.227617,-0.503218,1.056474
2769,-0.322669,-0.472154,0.966009
2770,-0.333768,-0.242429,1.021174
2771,-0.267326,-0.186924,0.970099
2772,-0.267826,-0.190751,0.967338
2773,-0.298849,-0.187216,0.608461
2774,-0.170759,-0.045186,0.168633
2775,0.260588,0.44313,-1.162735
2776,0.971393,1.532726,-1.230791
2777,0.668331,1.260705,-0.997066
2778,0.020206,0.312894,-0.144606
2779,-0.268879,-0.003361,-0.210464
2780,-0.180728,0.688236,1.098508
2781,0.227529,0.859949,1.797461
2782,0.386181,1.503822,0.748388
2783,-1.011135,-0.399784,1.489282
2784,-1.167159,-0.578411,0.613602
2785,-0.629051,-0.261265,0.926147
2786,-0.302028,0.412208,1.409534
2787,0.05327,0.58275,1.1526
2788,0.570641,0.518272,1.183933
2789,1.120917,0.545102,0.055815
2790,0.130978,0.072807,-0.012884
2791,0.051509,0.031513,0.129725
2792,-0.223896,-0.154867,0.426607
2793,-0.257597,-0.127632,0.334059
2794,-0.259614,-0.138683,0.304053
2795,-0.378522,-0.080685,0.213972
2796,-0.265928,-0.003357,0.163766
2797,-0.270165,-0.006974,0.141513
2798,-0.13317,0.038709,9.00E-06
2799,-0.176241,0.035684,0.125198
2800,-0.137109,0.087328,0.080496
2801,-0.053616,0.185567,-0.098363
2802,0.520915,0.226961,0.167376
2803,0.506683,0.188409,0.113509
2804,0.521878,0.124758,0.172705
2805,0.519702,0.111696,0.108261
2806,0.410326,0.184912,0.08014
2807,0.253479,0.22154,-0.038018
2808,-0.031569,0.457438,-0.112281
2809,-0.296212,0.383059,-0.124638
2810,-0.284607,0.448468,0.361567
2811,-0.190574,0.384537,0.76418
2812,-0.173566,0.673742,0.649391
2813,-0.300464,1.28445,0.475563
2814,-0.348516,1.206851,0.517746
2815,-0.26845,0.971543,0.574739
2816,-0.19131,0.20032,0.547638
2817,0.270029,0.016136,0.683452
2818,0.284766,0.059047,0.818288
2819,0.001279,-0.106903,0.895593
2820,-0.336248,-0.463519,1.009023
2821,-0.432081,-0.531096,0.958044
2822,-0.488168,-0.359747,0.942369
2823,-0.424062,-0.270986,0.956493
2824,-0.276215,-0.198364,0.902796
2825,-0.380406,-0.207982,0.728415
2826,-0.367795,-0.215994,0.578001
2827,-0.245183,0.004215,0.071406
2828,0.610616,1.116916,-1.180259
2829,0.784448,1.803696,-1.261341
2830,0.210865,0.496623,-0.318196
2831,-0.137699,0.016501,-0.117362
2832,-0.363767,0.498276,0.142177
2833,0.159789,0.843704,1.619844
2834,0.234729,2.054164,-0.159461
2835,-1.015023,-0.256967,1.239689
2836,-1.275213,-0.719163,0.945887
2837,-0.257685,0.286234,1.653117
2838,-0.216547,0.467173,1.46907
2839,-0.08118,0.685342,1.287139
2840,0.853896,0.48523,0.891153
2841,1.076154,0.502986,0.165664
2842,0.851266,0.255341,0.045964
2843,-0.027001,0.040465,0.237979
2844,-0.304257,-0.05297,0.305812
2845,-0.352406,-0.163932,0.272494
2846,-0.367791,-0.139044,0.241853
2847,-0.374104,-0.107843,0.245473
2848,-0.258551,0.000194,0.049911
2849,-0.134108,0.069008,0.017003
2850,-0.167954,-0.014658,0.157402
2851,-0.162578,-0.025188,0.127656
2852,-0.166066,0.192175,-0.088452
2853,0.073097,0.192042,-0.026154
2854,0.088239,0.179264,-0.043679
2855,0.430439,0.161383,0.209282
2856,0.490263,0.099761,0.179682
2857,0.522558,0.090878,0.141228
2858,0.502736,0.160514,0.075853
2859,0.340704,0.352084,0.339828
2860,0.122039,0.569981,0.222708
2861,-0.584975,0.708411,-0.012935
2862,-0.351734,0.430626,0.468336
2863,-0.226827,0.442836,0.668907
2864,-0.180811,0.904214,0.583095
2865,-0.265866,1.263933,0.637104
2866,-0.2336,1.289552,0.624998
2867,-0.383951,0.44354,0.425879
2868,-0.272975,0.266137,0.640413
2869,0.144799,0.067777,0.709044
2870,0.124856,-0.057584,0.788925
2871,-0.015523,-0.073414,0.920952
2872,-0.19871,-0.281316,0.974956
2873,-0.386255,-0.586226,0.954626
2874,-0.447042,-0.359879,0.982648
2875,-0.405768,-0.278215,0.990733
2876,-0.330633,-0.188042,0.926892
2877,-0.285729,-0.190337,0.785903
2878,-0.305464,-0.186913,0.645624
2879,-0.194888,0.119274,-0.201528
2880,0.347837,0.74727,-1.164667
2881,0.742456,1.259921,-1.091442
2882,0.417993,0.970805,-0.522097
2883,-0.158025,0.12111,-0.098617
2884,-0.37143,-0.054291,-0.237848
2885,-0.372237,0.425274,0.818239
2886,0.231182,0.762748,1.570054
2887,0.367371,2.012789,-0.042155
2888,-0.904191,-0.491823,1.77899
2889,-1.064684,-0.698458,0.867815
2890,-0.590512,-0.343977,0.924283
2891,-0.334158,0.465592,1.320477
2892,-0.054734,0.608491,1.058878
2893,0.909234,0.580189,0.850284
2894,1.084513,0.55708,0.114549
2895,0.288973,0.099228,0.164889
2896,-0.041057,0.014506,0.3035
2897,-0.228296,-0.06907,0.260659
2898,-0.354744,-0.080944,0.233384
2899,-0.321427,-0.109645,0.181915
2900,-0.260969,-0.098003,0.230848
2901,-0.211816,-0.058559,0.249792
2902,-0.219183,0.091154,0.213172
2903,-0.292659,0.025202,-0.064587
2904,-0.205202,0.099381,0.11771
2905,-0.188914,0.146784,0.092504
2906,-0.078418,0.202075,-0.094709
2907,0.351456,0.191678,0.158008
2908,0.36564,0.176989,0.178688
2909,0.390211,0.17294,0.175075
2910,0.391536,0.160589,0.118693
2911,0.368619,0.225367,-0.027062
2912,0.398541,0.187037,0.18993
2913,0.144733,0.314243,0.062289
2914,-0.26305,0.484918,0.04101
2915,-0.327337,0.463886,0.455376
2916,-0.261406,0.373063,0.693389
2917,-0.224163,0.585592,0.642313
2918,-0.308462,1.231652,0.363319
2919,-0.264509,1.279886,0.616097
2920,-0.259312,0.628951,0.50657
2921,-0.032316,0.099387,0.514938
2922,0.174213,0.038715,0.570406
2923,0.354881,-0.031472,0.683475
2924,-0.041718,-0.104606,0.826802
2925,-0.269534,-0.183259,0.954778
2926,-0.299759,-0.292002,1.012912
2927,-0.392042,-0.427769,0.988669
2928,-0.422367,-0.206109,0.978146
2929,-0.341764,-0.149181,0.947299
2930,-0.262123,-0.145282,0.888306
2931,-0.30833,-0.157119,0.728115
2932,-0.306501,-0.098513,0.452559
2933,-0.134245,0.150277,-0.401775
2934,0.318424,0.716672,-0.882321
2935,1.050498,2.025088,-1.265839
2936,0.473231,0.904098,-0.339556
2937,-0.121248,0.061895,-0.223017
2938,-0.556574,0.3797,-0.006779
2939,-0.204029,0.601233,0.998513
2940,0.447453,1.409113,0.906545
2941,-0.405314,0.267335,1.293145
2942,-1.34044,-0.552298,1.089905
2943,-0.375873,-0.243026,0.965534
2944,-0.006228,0.339455,1.663634
2945,0.04436,0.565593,1.216423
2946,0.968796,0.701659,0.46264
2947,0.962628,0.64086,0.221088
2948,0.217112,0.203871,0.387884
2949,-0.150622,0.101793,0.515991
2950,-0.177204,0.06578,0.440735
2951,-0.183687,-0.06722,0.274712
2952,-0.172966,-0.131562,0.320253
2953,-0.208479,-0.132278,0.355058
2954,-0.370676,-0.025643,0.314476
2955,-0.303522,0.044398,0.034851
2956,-0.196733,-0.010075,-0.050485
2957,-0.040171,0.021127,0.119378
2958,-0.060916,0.046385,0.149413
2959,-0.177317,0.085782,0.115805
2960,0.04207,0.206632,-0.084906
2961,0.260394,0.198217,0.018535
2962,0.405934,0.213889,0.108999
2963,0.43727,0.172136,0.163998
2964,0.442987,0.197036,0.092528
2965,0.389542,0.219573,0.047171
2966,0.154073,0.130536,-0.069282
2967,0.115093,0.258023,0.092595
2968,0.116835,0.310976,0.126605
2969,-0.205365,0.449396,0.866699
2970,-0.345579,0.518633,0.808778
2971,-0.339593,0.957951,0.46644
2972,-0.28758,1.113372,0.448464
2973,-0.177053,1.171153,0.555937
2974,-0.203895,0.730923,0.483753
2975,-0.232747,0.253138,0.693205
2976,0.247988,0.050178,0.642548
2977,0.417894,-0.024767,0.842912
2978,-0.043422,-0.187067,0.868459
2979,-0.282588,-0.342332,0.98428
2980,-0.386616,-0.428393,1.01097
2981,-0.387797,-0.46291,1.043514
2982,-0.415674,-0.21351,1.004969
2983,-0.335556,-0.158819,0.966751
2984,-0.283645,-0.157941,0.849661
2985,-0.248274,-0.10311,0.472349
2986,-0.201888,-0.021974,0.234437
2987,0.047627,0.502427,-0.967554
2988,1.141072,1.820011,-1.151419
2989,0.931878,1.438394,-0.922405
2990,0.255844,0.351042,-0.027094
2991,-0.382451,-0.271412,-0.312177
2992,-0.347112,-0.012026,0.190015
2993,0.104302,0.426835,1.540924
2994,0.32576,2.604344,0.189613
2995,-0.669213,0.79953,1.240983
2996,-1.448266,-0.909196,1.232415
2997,-0.152125,0.103943,1.716067
2998,-0.187111,0.394813,1.640317
2999,0.108571,0.724669,1.290378
3000,1.170411,0.504893,0.650966
3001,0.95705,0.420634,0.028594
3002,0.014862,0.11208,0.415253
3003,-0.08375,0.075879,0.450054
3004,-0.112007,-0.046901,0.406906
3005,-0.252563,-0.118352,0.324052
3006,-0.334777,-0.121092,0.172273
3007,-0.382173,-0.17001,0.18264
3008,-0.198373,-0.047648,0.255647
3009,-0.181724,0.038302,0.234306
3010,-0.181829,-0.007617,0.130438
3011,-0.155536,0.0402,0.037037
3012,-0.137548,0.1161,0.064961
3013,-0.126468,0.109017,0.009751
3014,0.374109,0.210896,0.170474
3015,0.428233,0.242402,0.184775
3016,0.394217,0.152442,0.27634
3017,0.535606,0.184809,0.160775
3018,0.529007,0.225926,0.066401
3019,0.509866,0.23412,0.124035
3020,0.216534,0.292668,0.182539
3021,-0.404276,0.409798,0.031924
3022,-0.504446,0.487331,0.279335
3023,-0.186029,0.327798,0.637814
3024,-0.046412,0.632331,0.671026
3025,-0.090256,1.061926,0.475594
3026,-0.08413,1.154608,0.633798
3027,-0.045137,0.71817,0.502346
3028,-0.035969,0.310875,0.613974
3029,0.114447,0.019307,0.643748
3030,0.185815,-0.010942,0.754399
3031,0.019513,-0.00051,0.828388
3032,-0.176316,-0.147994,0.883146
3033,-0.321418,-0.378591,1.00135
3034,-0.356105,-0.404807,0.984033
3035,-0.353125,-0.23944,0.999161
3036,-0.327234,-0.173139,0.912655
3037,-0.299295,-0.174387,0.901766
3038,-0.264737,-0.17494,0.767734
3039,-0.210786,-0.007325,0.342366
3040,-0.134746,0.112278,0.036723
3041,0.196265,0.667803,-0.995196
3042,0.923284,1.524225,-1.076188
3043,0.645882,1.044736,-0.719903
3044,0.250498,0.257931,0.005213
3045,-0.272175,-0.072822,-0.112219
3046,-0.017697,0.358185,1.214596
3047,0.512901,1.680991,0.949821
3048,0.484897,2.624675,0.097934
3049,-1.063647,-0.149234,1.531337
3050,-0.780068,-0.54373,0.899439
3051,-0.276131,0.096762,1.773289
3052,-0.021837,0.619138,1.313187
3053,0.540983,0.674119,1.054497
3054,1.210595,0.518223,0.364351
3055,1.081203,0.424598,0.281111
3056,0.067112,0.124797,0.252224
3057,-0.114415,0.040518,0.285117
3058,-0.170203,-0.082123,0.248738
3059,-0.315029,-0.176901,0.397712
3060,-0.375022,-0.105725,0.341359
3061,-0.351169,-0.087267,0.214177
3062,-0.182807,-0.022055,0.244309
3063,-0.18305,-0.04281,0.104075
3064,-0.16128,-0.03814,0.055223
3065,-0.12264,0.077758,0.153674
3066,-0.175463,0.156831,0.045703
3067,-0.112234,0.115082,-0.088077
3068,0.47642,0.181983,0.218364
3069,0.516887,0.153556,0.150396
3070,0.57719,0.136483,0.190058
3071,0.552089,0.136361,0.078829
3072,0.205533,0.22697,-0.028379
3073,0.039821,0.232963,0.001905
3074,0.202591,0.227497,0.224829
3075,-0.03936,0.334537,0.030167
3076,-0.214329,0.61948,0.642244
3077,-0.275329,0.501047,0.820136
3078,-0.232132,1.110503,0.440373
3079,-0.259089,1.297463,0.633232
3080,-0.1834,1.405035,0.566614
3081,-0.070199,0.506263,0.631566
3082,0.018564,0.322265,0.739097
3083,0.053317,-0.030735,0.657673
3084,0.043986,-0.159108,0.851876
3085,0.027593,-0.125288,0.877022
3086,-0.132423,-0.276375,1.036144
3087,-0.388997,-0.493656,1.090425
3088,-0.390189,-0.442442,1.076618
3089,-0.35944,-0.239235,0.999
3090,-0.349204,-0.259512,0.98286
3091,-0.242009,-0.213308,0.765872
3092,-0.170774,-0.139716,0.425583
3093,-0.093101,0.022008,0.013433
3094,0.311192,0.771803,-1.217807
3095,0.699233,1.633839,-0.91608
3096,0.452532,1.006601,-0.466751
3097,-0.007031,0.215689,-0.23794
3098,-0.690598,-0.093706,0.087141
3099,0.013254,0.295308,1.138383
3100,0.383623,0.583996,1.481731
3101,0.54238,1.470059,1.544754
3102,-1.210708,-1.025342,2.110796
3103,-1.110156,-0.769037,0.027121
3104,-0.129939,0.637324,2.066391
3105,-0.248652,0.706708,1.715323
3106,0.454045,0.531149,0.765259
3107,1.226287,0.713247,0.79145
3108,0.880035,0.349198,0.373859
3109,0.07427,0.089557,0.339823
3110,-0.17876,0.058033,0.37242
3111,-0.160555,-0.046885,0.257328
3112,-0.101553,-0.093197,0.152538
3113,-0.150682,-0.144293,0.24822
3114,-0.393299,-0.048121,0.478503
3115,-0.382863,-0.067703,0.401484
3116,-0.252688,-0.027793,0.068071
3117,-0.089771,0.06006,-0.005143
3118,-0.052331,0.045948,-0.01678
3119,-0.167119,0.13546,0.051905
3120,-0.071865,0.137852,-0.060932
3121,0.054885,0.075388,0.031875
3122,0.313485,0.142744,0.165996
3123,0.423638,0.158696,0.284934
3124,0.451812,0.161043,0.289134
3125,0.440514,0.226107,0.150804
3126,0.206219,0.279865,-0.130603
3127,0.197192,0.281974,-0.014357
3128,0.07046,0.328751,0.097567
3129,-0.294319,0.431056,0.044614
3130,-0.294459,0.490054,0.32128
3131,-0.202595,0.501338,0.870411
3132,-0.285341,1.001178,0.484805
3133,-0.25401,1.247364,0.419475
3134,-0.300024,1.046365,0.525162
3135,-0.190273,0.576114,0.593152
3136,-0.166793,0.256541,0.547436
3137,0.284787,0.03049,0.7209
3138,0.237116,0.007822,0.783693
3139,-0.092027,-0.103334,0.87709
3140,-0.281268,-0.207411,0.965859
3141,-0.407365,-0.281246,1.066057
3142,-0.428547,-0.2574,1.017304
3143,-0.404483,-0.111653,0.974825
3144,-0.357338,-0.110711,0.955278
3145,-0.319676,-0.119034,0.862125
3146,-0.284094,-0.161629,0.603906
3147,-0.103862,0.178853,-0.273776
3148,0.140228,0.40884,-0.81863
3149,0.860074,1.291279,-1.050707
3150,0.45287,0.803061,-0.522369
3151,0.171132,0.527122,-0.110159
3152,-0.225163,0.155368,-0.100895
3153,-0.300806,0.559849,0.121959
3154,0.347003,0.442915,1.423996
3155,0.079996,1.523378,0.31937
3156,-1.662246,-0.147898,0.878228
3157,-1.486131,-0.387197,0.5901
3158,0.054752,0.263209,1.432996
3159,0.371769,0.469024,0.99895
3160,0.768888,0.526775,0.670465
3161,0.910838,0.581661,0.498434
3162,-0.190193,0.193383,0.57234
3163,-0.304044,0.110246,0.626927
3164,-0.270592,0.059297,0.55922
3165,-0.154629,0.130691,0.454287
3166,-0.191469,0.055704,0.070554
3167,-0.150293,0.118905,0.200657
3168,-0.270942,-0.172093,0.310902
3169,-0.092621,0.052934,0.345086
3170,-0.29867,-0.032581,0.066893
3171,-0.18891,0.02839,-0.026742
3172,-0.141935,0.098182,-0.038755
3173,-0.168013,0.092595,0.115976
3174,-0.092207,0.038202,0.017868
3175,-0.097177,-0.018093,0.108668
3176,0.171917,0.026449,0.333642
3177,0.254875,0.219256,0.291647
3178,0.35543,0.290847,0.223435
3179,0.235437,0.406521,0.168248
3180,0.182979,0.43501,0.062418
3181,0.2448,0.382709,-0.05052
3182,0.203883,0.093813,0.176181
3183,-0.193864,0.272084,-0.087174
3184,-0.33957,0.374232,-0.130775
3185,-0.320099,0.408162,0.67914
3186,-0.206448,0.763807,0.711901
3187,-0.19697,0.785938,0.765596
3188,-0.274494,1.142621,0.581722
3189,-0.241092,1.045126,0.577532
3190,-0.137521,0.661527,0.62507
3191,-0.041274,0.267839,0.627178
3192,-0.001245,0.09534,0.657246
3193,-0.136979,0.015851,0.72557
3194,-0.111479,-0.043651,0.921607
3195,-0.219649,-0.19233,0.97547
3196,-0.413031,-0.310096,0.936524
3197,-0.400767,-0.314755,0.942041
3198,-0.365256,-0.165839,0.934105
3199,-0.3582,-0.133342,0.892717
3200,-0.347606,-0.126525,0.76247
3201,-0.248855,-0.031727,0.399669
3202,-0.169088,0.075445,0.110229
3203,0.10224,0.642747,-0.89896
3204,0.635291,1.506541,-0.93749
3205,0.500319,1.051149,-0.748846
3206,-0.053382,0.284157,-0.151123
3207,-0.201637,0.106871,-0.286026
3208,-0.385659,-0.00821,0.252318
3209,0.109915,0.130788,1.255335
3210,0.330926,0.305904,1.562292
3211,-0.244472,2.003119,0.601837
3212,-1.452196,-0.502669,1.767766
3213,-1.441888,-0.908994,0.849795
3214,0.019553,0.446359,1.704727
3215,-0.167736,0.481612,1.399399
3216,0.173572,0.497205,0.872689
3217,0.933119,0.671437,0.381694
3218,0.319955,0.295377,0.429732
3219,0.002526,0.108984,0.374698
3220,-0.316772,-0.002966,0.463436
3221,-0.279732,0.093946,0.457598
3222,-0.090004,0.056957,0.197922
3223,-0.057442,0.05622,0.075008
3224,-0.346013,-0.090017,0.131881
3225,-0.346622,-0.056917,0.443286
3226,-0.333099,-0.062389,0.424152
3227,-0.355799,-0.049147,-0.014487
3228,-0.319645,0.175403,-0.126118
3229,-0.212537,0.143553,0.18035
3230,-0.200249,0.208987,0.082757
3231,-0.027677,0.267668,-0.012125
3232,0.466312,0.237348,0.285822
3233,0.495916,0.342318,0.101662
3234,0.397721,0.319673,0.09111
3235,0.267441,0.322506,-0.001383
3236,0.059496,0.347968,0.023755
3237,0.012602,0.233471,-0.073175
3238,0.324841,0.182038,0.1159
3239,-0.069547,0.337089,0.087927
3240,-0.36807,0.545417,0.309704
3241,-0.291055,0.400075,0.629628
3242,-0.276985,0.671968,0.604314
3243,-0.318678,1.240967,0.54922
3244,-0.295293,1.207602,0.608452
3245,-0.290464,0.886869,0.539846
3246,-0.201689,0.405073,0.58374
3247,-0.044094,0.304498,0.632537
3248,0.10218,0.048329,0.792875
3249,-0.146107,-0.14831,0.800172
3250,-0.232559,-0.147147,0.86478
3251,-0.36053,-0.158928,0.951085
3252,-0.495672,-0.312554,1.02154
3253,-0.48424,-0.21779,1.003189
3254,-0.439904,-0.131173,0.984156
3255,-0.42198,-0.131195,0.94528
3256,-0.314015,-0.149982,0.727818
3257,-0.335826,-0.11734,0.454479
3258,-0.200396,0.186256,-0.395154
3259,0.395376,1.029398,-0.990251
3260,1.135093,2.130669,-1.24703
3261,0.352425,0.858293,-0.115056
3262,-0.259859,-0.0711,-0.245355
3263,-0.553174,0.051345,0.422377
3264,-0.247777,0.200647,1.272453
3265,-0.004446,0.209091,1.816572
3266,0.489644,3.161711,-0.042121
3267,-1.223144,-0.525949,1.865831
3268,-1.429387,-1.047891,1.297223
3269,-0.286249,0.247514,1.65648
3270,-0.275157,0.617571,1.423549
3271,-0.04447,0.727154,1.253345
3272,1.114136,0.813801,0.292898
3273,0.53246,0.362448,0.233305
3274,-0.189606,0.100836,0.401643
3275,-0.325479,0.165246,0.403759
3276,-0.158723,-0.016743,0.354387
3277,-0.174935,0.005272,0.215865
3278,-0.291682,-0.07003,0.204366
3279,-0.467001,-0.137174,0.255716
3280,-0.496771,-0.009819,0.221267
3281,-0.193666,-0.00522,0.013523
3282,-0.111937,0.009206,0.03465
3283,-0.195751,0.073676,0.140017
3284,-0.255701,0.161346,0.088717
3285,-0.012048,0.161094,0.010038
3286,0.179519,0.173451,0.112442
3287,0.322011,0.234678,0.014612
3288,0.358994,0.198302,0.228251
3289,0.398343,0.183809,0.244816
3290,0.37385,0.267456,0.098363
3291,0.279835,0.249454,0.028797
3292,0.158551,0.23571,0.22599
3293,0.00509,0.327568,-0.005834
3294,-0.256459,0.433516,0.19835
3295,-0.395547,0.454602,0.378022
3296,-0.315156,0.463858,0.79852
3297,-0.298387,0.979621,0.514374
3298,-0.252934,1.314161,0.606993
3299,-0.189377,0.884919,0.440154
3300,-0.16513,0.667172,0.537761
3301,-0.176275,0.441691,0.72527
3302,0.250394,0.077348,0.692003
3303,0.113071,-0.038553,0.840496
3304,-0.012069,-0.082309,0.899032
3305,-0.324204,-0.164325,0.912313
3306,-0.4768,-0.312252,1.028545
3307,-0.452843,-0.342551,1.056857
3308,-0.450163,-0.150337,1.024927
3309,-0.419192,-0.13925,0.969187
3310,-0.375334,-0.132522,0.940918
3311,-0.349177,-0.141206,0.697711
3312,-0.360709,-0.024047,0.418027
3313,-0.297801,0.088185,0.062268
3314,0.660624,1.125109,-1.025121
3315,1.32207,2.126844,-1.197506
3316,0.830878,1.321543,-0.584082
3317,-0.309492,-0.128344,-0.281653
3318,-0.479407,0.190914,0.108457
3319,0.015781,0.535953,1.026153
3320,0.666373,1.770132,0.858424
3321,-0.62495,0.677544,1.595204
3322,-1.683201,-0.577621,1.084365
3323,-0.741976,-0.170857,0.973323
3324,-0.15071,0.540128,1.613616
3325,0.07916,0.624886,1.397203
3326,0.990426,0.449596,0.556542
3327,0.436523,0.412172,0.379752
3328,0.043928,0.195309,0.502647
3329,-0.298759,0.094267,0.495351
3330,-0.245253,0.075992,0.390753
3331,-0.028132,0.041573,0.229896
3332,-0.036668,0.033521,0.138623
3333,-0.257618,-0.139404,0.224905
3334,-0.457092,-0.027711,0.21171
3335,-0.296831,0.088686,0.05919
3336,-0.194376,-0.011258,0.120597
3337,-0.218355,-0.004107,0.068421
3338,-0.163016,0.075781,0.087299
3339,-0.204085,0.145863,0.065938
3340,-0.126967,0.12372,0.024048
3341,0.217048,0.113599,0.15592
3342,0.300977,0.26729,0.232552
3343,0.333394,0.279809,0.242559
3344,0.381244,0.250889,0.210457
3345,0.379679,0.296189,0.248085
3346,0.288844,0.316928,-0.050569
3347,0.129733,0.279313,0.153508
3348,0.039326,0.305898,0.059963
3349,-0.255785,0.381022,0.124358
3350,-0.380515,0.533798,0.770392
3351,-0.305166,0.701135,0.814379
3352,-0.267773,0.899565,0.760795
3353,-0.269059,0.92356,0.427336
3354,-0.167393,0.987848,0.59519
3355,-0.162566,0.587812,0.571095
3356,0.039155,0.201255,0.59322
3357,0.256314,0.027258,0.778644
3358,0.002709,-0.121092,0.807861
3359,-0.21957,-0.157432,0.845118
3360,-0.408657,-0.191758,0.958382
3361,-0.379924,-0.202543,0.960801
3362,-0.346212,-0.153036,0.97966
3363,-0.370284,-0.093852,0.969655
3364,-0.341985,-0.083812,0.927701
3365,-0.297233,-0.096745,0.810939
3366,-0.330798,-0.109329,0.568113
3367,-0.258037,0.031052,0.133003
3368,0.031429,0.445316,-0.800237
3369,0.732414,1.184932,-0.892045
3370,0.768938,1.36521,-0.900189
3371,0.201701,0.581864,-0.045951
3372,-0.410574,0.196947,-0.137429
3373,-0.402402,0.507088,0.262898
3374,0.321701,0.740326,1.315235
3375,0.331163,2.073118,0.143138
3376,-1.162911,-0.146707,1.522658
3377,-1.328098,-0.728993,0.706789
3378,-0.014249,0.313328,1.572239
3379,-0.148469,0.508757,1.60301
3380,0.798926,0.535717,0.427587
3381,0.450553,0.40669,0.39695
3382,0.032517,0.145408,0.505212
3383,-0.284759,0.011431,0.489716
3384,-0.200508,0.03654,0.422676
3385,-0.172568,0.08783,0.370584
3386,-0.093536,0.050068,0.2908
3387,-0.077741,-0.064812,0.216518
3388,-0.207113,-0.057138,0.134771
3389,-0.289726,-0.018165,0.274256
3390,-0.238756,-0.024445,0.213821
3391,-0.175979,0.033944,0.016988
3392,-0.162702,0.049523,0.213132
3393,-0.186685,0.214542,0.216356
3394,-0.09677,0.278591,0.077633
3395,0.202157,0.20408,0.194583
3396,0.373841,0.182576,0.135922
3397,0.397904,0.173813,0.068963
3398,0.518052,0.226128,0.338855
3399,0.430171,0.222198,0.296144
3400,0.390284,0.241528,0.286937
3401,-0.149669,0.738729,-0.039035
3402,-0.728897,0.621251,0.020043
3403,-0.715819,0.417915,0.228141
3404,-0.127041,0.436548,0.845887
3405,-0.16363,0.854205,0.792802
3406,-0.222223,1.017189,0.638326
3407,-0.236011,0.815603,0.629482
3408,-0.099181,0.636028,0.576258
3409,-0.103158,0.345343,0.657702
3410,-0.144574,0.119384,0.754672
3411,-0.114203,-0.046641,0.7219
3412,-0.108785,-0.037745,0.910153
3413,-0.1889,-0.154452,0.854743
3414,-0.280332,-0.273592,0.984825
3415,-0.34432,-0.259216,1.018696
3416,-0.407798,-0.115065,0.966665
3417,-0.393569,-0.0933,0.932719
3418,-0.388481,-0.13364,0.842111
3419,-0.350837,-0.140359,0.610618
3420,-0.240827,-0.001933,0.138896
3421,0.019642,0.393036,-0.761862
3422,0.508305,1.196482,-1.000006
3423,0.600157,0.936845,-0.579965
3424,0.343994,0.603065,-0.021585
3425,-0.179637,-0.075093,-0.20984
3426,-0.192894,0.884475,0.859056
3427,0.234673,1.030349,1.75754
3428,0.15681,2.142387,-0.044089
3429,-1.401544,-0.40578,1.451665
3430,-1.365909,-0.787938,0.488776
3431,-0.211208,0.427443,1.744523
3432,-0.293833,0.570259,1.431921
3433,0.555966,0.640524,1.195326
3434,0.945162,0.723636,0.027265
3435,0.115708,0.206053,0.25371
3436,-0.255239,0.108721,0.513146
3437,-0.25607,0.082317,0.425631
3438,-0.165099,-0.056044,0.387254
3439,-0.23775,-0.028632,0.380499
3440,-0.479703,-0.087253,0.128291
3441,-0.521696,-0.051991,0.154999
3442,-0.426176,-0.034659,0.194486
3443,-0.249169,0.076692,0.24929
3444,-0.249064,0.082947,0.015049
3445,-0.156352,0.087159,-0.039723
3446,-0.209032,0.233115,-0.020067
3447,-0.038724,0.216843,0.059132
3448,0.212199,0.238444,0.190734
3449,0.390868,0.23706,0.123231
3450,0.454151,0.175689,0.264291
3451,0.467845,0.166588,0.212223
3452,0.266895,0.306652,0.04237
3453,0.175512,0.31796,0.181652
3454,0.090496,0.402795,0.131549
3455,-0.374392,0.464784,0.018835
3456,-0.365988,0.427489,0.726959
3457,-0.334871,0.416973,0.852237
3458,-0.270252,0.856804,0.703368
3459,-0.340756,1.228288,0.417914
3460,-0.285825,1.301136,0.648988
3461,-0.230099,0.804068,0.489635
3462,-0.08433,0.416031,0.670844
3463,-0.045281,0.106998,0.712527
3464,0.02812,-0.059355,0.806016
3465,-0.09615,-0.132769,0.887283
3466,-0.230866,-0.210352,0.963368
3467,-0.301427,-0.246159,1.009782
3468,-0.36215,-0.303828,1.038683
3469,-0.385897,-0.258201,1.014599
3470,-0.372089,-0.168719,0.979613
3471,-0.37022,-0.155811,0.875556
3472,-0.34385,-0.154733,0.681547
3473,-0.280346,-0.024775,0.216216
3474,0.01052,0.624242,-1.108816
3475,0.773749,1.596289,-1.072984
3476,0.602198,1.286659,-0.847771
3477,0.06732,0.404094,-0.10098
3478,-0.434387,-0.225059,-0.235686
3479,-0.57852,0.149318,0.427233
3480,-0.099984,0.362519,1.807649
3481,0.360701,2.840924,-0.567168
3482,-0.413437,0.953467,1.687783
3483,-1.144832,-1.012367,0.694085
3484,-0.535864,-0.538646,0.781421
3485,0.040066,0.638422,1.373452
3486,0.486463,0.801786,1.138705
3487,0.893493,0.857983,0.765871
3488,0.650726,0.402462,0.234019
3489,0.177411,0.167015,0.411878
3490,-0.260843,0.20085,0.461288
3491,-0.202445,-0.055896,0.419211
3492,-0.192235,-0.057588,0.303546
3493,-0.191074,-0.0213,0.12055
3494,-0.520583,-0.06496,0.270046
3495,-0.404976,-0.011038,0.203853
3496,-0.25582,0.046896,0.138944
3497,-0.161885,0.056807,0.021986
3498,-0.180834,0.066285,0.112211
3499,-0.225398,0.13666,0.240809
3500,-0.159361,0.214547,0.03948
3501,0.113514,0.320455,-0.007192
3502,0.387775,0.342011,0.102527
3503,0.336906,0.216128,0.206233
3504,0.411799,0.222099,0.26503
3505,0.341103,0.256164,0.090558
3506,0.137985,0.208504,-0.037623
3507,0.204482,0.271134,0.016607
3508,0.158851,0.37443,0.167706
3509,-0.282757,0.48276,0.262527
3510,-0.390539,0.463364,0.737436
3511,-0.340087,0.606606,0.842548
3512,-0.271983,1.076219,0.517897
3513,-0.277431,1.168509,0.584302
3514,-0.184813,0.94374,0.610133
3515,-0.143957,0.695834,0.644839
3516,0.045228,0.326416,0.683207
3517,0.217444,0.056577,0.779786
3518,0.117681,0.01205,0.833495
3519,-0.068461,-0.132886,0.968896
3520,-0.206384,-0.238493,0.949991
3521,-0.236947,-0.195895,0.964593
3522,-0.423506,-0.15368,1.074712
3523,-0.433825,-0.074026,1.046498
3524,-0.392666,-0.076151,0.996473
3525,-0.364183,-0.094329,0.79786
3526,-0.376568,-0.112381,0.65266
3527,-0.323342,0.023588,0.279184
3528,0.242964,0.713466,-0.842059
3529,0.684896,1.213884,-0.881492
3530,0.828809,1.117391,-0.407084
3531,0.44586,0.559243,-0.02019
3532,-0.524262,0.045101,-0.114834
3533,-0.32846,0.440738,0.725353
3534,0.128662,0.444777,1.243017
3535,0.517138,2.009501,0.250557
3536,-1.354664,-0.380817,1.341034
3537,-1.416985,-0.582063,1.115868
3538,-0.279352,0.129414,1.283302
3539,-0.022508,0.549317,1.320749
3540,0.527678,0.553419,0.88877
3541,0.946727,0.525272,0.49867
3542,0.081802,0.179449,0.483111
3543,-0.147344,0.098353,0.457777
3544,-0.305149,0.103352,0.448913
3545,-0.093886,0.057083,0.316852
3546,-0.116946,0.124006,0.237555
3547,-0.038991,0.184994,0.249238
3548,-0.188274,-0.064242,0.362567
3549,-0.275829,-0.012464,0.269432
3550,-0.24956,0.031624,0.28312
3551,-0.191169,0.074641,-0.02956
3552,-0.181147,0.05459,0.104163
3553,-0.229307,0.138559,0.175654
3554,-0.090179,0.240497,0.050025
3555,0.191815,0.125182,0.212541
3556,0.338916,0.273837,0.211564
3557,0.407614,0.303337,0.235308
3558,0.37696,0.210552,0.156768
3559,0.160717,0.325565,0.126968
3560,-0.027365,0.29812,-0.031231
3561,0.118856,0.252419,0.103418
3562,0.174504,0.219002,0.029345
3563,0.057866,0.343591,0.169991
