,userAcceleration.x,userAcceleration.y,userAcceleration.z
0,1.298954,1.280499,-0.414817
1,1.423255,1.082918,-0.320712
2,0.443952,-0.354363,-0.709521
3,0.152851,-0.6207,0.118442
4,-0.076964,0.186229,1.083291
5,-0.258928,0.359883,0.922509
6,-0.432347,0.68851,0.420697
7,0.016089,1.056666,-0.093021
8,-0.489563,-0.1826,0.253656
9,-0.603074,-0.323731,0.358205
10,-0.603002,-0.331403,1.011877
11,-0.306506,0.110442,0.617521
12,-0.008417,0.341558,0.478838
13,0.41892,0.218423,0.290009
14,0.193398,0.005106,0.239995
15,-0.220682,-0.158533,0.222851
16,-0.307845,-0.153352,0.226956
17,-0.209073,-0.194299,0.239954
18,0.0523,-0.202525,0.254738
19,0.205136,-0.178029,0.227362
20,0.288407,-0.118598,0.211287
21,0.369401,-0.082126,0.095916
22,0.374955,-0.120455,0.007589
23,0.229163,-0.096565,-0.002333
24,0.182566,-0.080332,0.054507
25,0.286061,-0.022273,0.080579
26,0.389861,0.033683,-0.076667
27,0.289256,0.118232,-0.139516
28,0.288473,0.173442,0.136612
29,0.378382,0.00023,0.290843
30,0.236968,0.238446,0.170786
31,0.131387,0.541781,0.050501
32,0.301477,0.35682,0.158079
33,0.388674,0.170117,0.294695
34,0.325474,0.074226,0.062644
35,-0.117219,0.192079,-0.148542
36,-0.468909,0.509487,-0.147021
37,-0.579435,1.071683,0.567687
38,-0.323433,0.613748,0.66395
39,0.447159,0.266411,0.04764
40,0.374426,0.360497,-0.061458
41,0.184028,0.275473,0.069622
42,-0.194053,-0.017509,0.443214
43,-0.368378,-0.089332,0.479596
44,-0.431469,-0.168899,0.484704
45,-0.406997,-0.358872,0.441937
46,-0.438936,-0.421849,0.437229
47,-0.514382,-0.447558,0.420517
48,-0.530593,-0.377826,0.465434
49,-0.347822,-0.459443,0.522119
50,-0.340436,-0.462399,0.521844
51,-0.194014,-0.415548,0.399515
52,-0.193767,-0.335961,0.144239
53,-0.028093,-0.103984,-0.220738
54,0.278714,0.106309,-0.508331
55,1.562101,1.454314,-0.223634
56,1.141976,0.811349,-0.540721
57,0.57153,0.025637,-0.75318
58,-0.128477,-0.221676,0.550528
59,-0.259642,0.256971,1.490292
60,-0.37532,0.492323,1.022215
61,-0.358588,0.96071,-0.37098
62,-0.438214,-0.327137,0.341762
63,-0.583733,-0.193442,0.730192
64,-0.633864,-0.198505,0.986663
65,-0.29467,0.265124,0.524867
66,0.278541,0.687716,0.343616
67,0.386298,0.235964,0.232862
68,-0.109475,-0.128504,0.186153
69,-0.360048,-0.181332,0.210884
70,-0.344807,-0.209982,0.262282
71,-0.267319,-0.203095,0.324257
72,-0.07978,-0.178057,0.296094
73,0.048897,-0.178045,0.208396
74,0.166523,-0.18289,0.142554
75,0.225443,-0.146417,0.000395
76,0.269857,-0.081998,-0.098868
77,0.205471,-0.038272,-0.013842
78,0.268118,-0.003219,0.159973
79,0.332219,0.060467,0.112355
80,0.228928,-0.024386,-0.163997
81,0.240692,0.059863,-0.167972
82,0.339961,0.048937,0.364998
83,0.39905,-0.035527,0.430419
84,0.149929,0.377531,-0.026549
85,0.086629,0.378792,-0.108146
86,0.356565,0.191564,-0.062219
87,0.439721,0.000538,0.035684
88,0.377234,-0.297168,0.158027
89,0.13031,-0.352114,0.074862
90,-0.300645,0.557608,-0.219907
91,-0.877953,1.609413,0.180132
92,-0.885436,1.692822,0.577069
93,-0.109644,0.316198,0.354991
94,0.464617,0.329597,-0.131201
95,0.547012,0.357502,-0.156276
96,0.409569,0.278342,-0.008792
97,0.018837,0.041296,0.341524
98,-0.392231,0.045067,0.482503
99,-0.567966,-0.006542,0.516309
100,-0.717037,-0.263196,0.461821
101,-0.683707,-0.337422,0.456471
102,-0.685387,-0.519408,0.456615
103,-0.550055,-0.547166,0.530883
104,-0.341154,-0.514746,0.574082
105,-0.171945,-0.471572,0.529285
106,-0.203186,-0.430977,0.340549
107,-0.245257,-0.265176,0.056178
108,-0.057817,-0.039184,-0.380217
109,0.495629,0.837195,-0.848436
110,1.835081,2.127901,-0.437085
111,0.956804,0.404766,-0.745707
112,0.284036,-0.991878,-0.373802
113,0.079522,-0.860663,0.745596
114,-0.397793,-0.081084,1.197673
115,-0.816165,0.500159,0.697008
116,-0.79115,2.09975,-0.714285
117,0.74086,0.448928,0.603481
118,-0.377768,-0.437404,0.495009
119,-0.724325,-0.241802,0.897396
120,-0.677105,-0.123427,0.809925
121,-0.492849,0.167787,0.558054
122,0.188088,0.698718,0.369666
123,0.174116,0.136264,0.352398
124,-0.189402,-0.059823,0.226533
125,-0.280676,-0.117306,0.225787
126,-0.108705,-0.240249,0.296496
127,0.067169,-0.318525,0.302856
128,0.087239,-0.358597,0.263718
129,0.146958,-0.201389,0.179061
130,0.247588,-0.093107,0.056436
131,0.226748,-0.087683,-0.053217
132,0.283008,-0.095035,-0.092591
133,0.24412,-0.064367,0.012109
134,0.327255,-0.030023,0.015165
135,0.332137,-0.022162,-0.069293
136,0.262164,0.160536,-0.057863
137,0.251594,0.118585,0.040375
138,0.292169,0.076303,0.163335
139,0.209451,0.477564,0.085237
140,0.279825,0.372315,0.118091
141,0.376149,0.295548,0.168612
142,0.214829,0.200985,-0.229795
143,0.17397,0.203817,-0.179694
144,-0.357791,0.224522,-0.202729
145,-0.84998,1.49634,0.367221
146,-0.743778,1.391958,0.641673
147,0.244692,0.19818,0.142345
148,0.484211,0.242113,-0.091061
149,0.150361,0.195271,0.067368
150,-0.125348,-0.006181,0.358113
151,-0.406523,-0.061745,0.514393
152,-0.524686,-0.222765,0.521505
153,-0.422325,-0.362579,0.468321
154,-0.374454,-0.417293,0.469736
155,-0.403038,-0.463986,0.423258
156,-0.358301,-0.465882,0.485383
157,-0.404915,-0.445165,0.44794
158,-0.367813,-0.543399,0.453648
159,-0.325347,-0.603466,0.32615
160,-0.335281,-0.361366,0.249175
161,-0.241662,0.057687,-0.135099
162,-0.009287,0.31347,-0.480667
163,1.571401,2.025224,-0.501835
164,0.30479,0.052018,-0.689352
165,0.044074,-0.197444,-0.505474
166,0.035187,0.069648,0.026259
167,-0.548991,0.586094,0.759298
168,-0.720506,-0.308828,0.165537
169,-0.739162,-0.122325,0.447618
170,-0.236487,0.212934,1.105143
171,-0.001101,0.739034,0.673692
172,0.324821,0.661432,0.424914
173,0.337868,0.275125,0.337646
174,-0.377143,0.026664,0.246628
175,-0.656319,-0.120331,0.340431
176,-0.529501,-0.282203,0.367112
177,-0.229725,-0.234407,0.384134
178,0.006346,-0.116177,0.359389
179,0.20149,-0.089112,0.247423
180,0.254834,-0.181837,0.071277
181,0.273626,-0.190326,-0.114058
182,0.241196,-0.16107,-0.076946
183,0.22737,-0.160998,-0.005174
184,0.344043,-0.116214,0.211095
185,0.237837,-0.080583,0.098547
186,0.155667,0.001311,-0.23801
187,0.240356,0.098548,-0.216623
188,0.328221,0.178983,0.141102
189,0.422607,-0.077022,0.280725
190,0.312344,0.165789,0.050831
191,0.270692,0.412232,-0.02941
192,0.237424,0.241985,0.089092
193,0.247671,0.036478,0.352434
194,0.289262,0.085531,-0.0621
195,-0.116423,0.414779,-0.036906
196,-0.710966,0.995019,0.009611
197,-0.708624,1.032977,0.707498
198,-0.294411,0.60226,0.496677
199,0.454649,0.448507,-0.006501
200,0.568631,0.367066,-0.042951
201,0.230644,0.115827,0.202322
202,-0.168365,0.041399,0.44671
203,-0.490469,-4.00E-06,0.522384
204,-0.57118,-0.194804,0.523239
205,-0.535851,-0.333863,0.516041
206,-0.49097,-0.451839,0.502721
207,-0.514653,-0.524948,0.472233
208,-0.517366,-0.516544,0.570058
209,-0.435917,-0.524783,0.579339
210,-0.398869,-0.564233,0.548053
211,-0.380117,-0.566327,0.311422
212,-0.348883,-0.292326,0.096255
213,0.000695,0.176108,-0.352877
214,1.506448,1.880139,-0.817035
215,1.787965,1.683735,-0.284897
216,0.338484,-0.531787,-0.629583
217,0.026934,-0.638236,0.192964
218,-0.254058,-0.308205,0.819024
219,-0.957573,0.713803,0.33217
220,-0.606783,1.381949,-0.258635
221,-0.090897,1.397298,0.164068
222,-0.293129,-0.307572,0.742108
223,-0.5206,-0.202992,0.986377
224,-0.527155,-0.213939,0.954251
225,-0.046858,0.331312,0.441995
226,0.288294,0.667711,0.284476
227,0.009547,0.184784,0.264505
228,-0.377763,-0.040155,0.278848
229,-0.474176,-0.034065,0.292393
230,-0.391959,-0.174872,0.288327
231,-0.190996,-0.232419,0.31813
232,-0.041383,-0.259232,0.312093
233,0.095438,-0.216261,0.328702
234,0.124121,-0.196168,0.261563
235,0.24786,-0.122886,0.009878
236,0.272684,-0.103961,-0.02279
237,0.329046,-0.056786,0.053103
238,0.307632,0.014001,0.045114
239,0.396045,0.057679,-0.01361
240,0.302603,0.028817,-0.155362
241,0.291632,0.103338,0.004852
242,0.318217,-0.028334,0.238709
243,0.350308,0.048533,0.179158
244,0.262402,0.279059,0.064583
245,0.192102,0.313865,0.10832
246,0.184721,0.313763,0.12836
247,0.280182,0.029719,0.353367
248,-0.015482,0.094838,-0.033098
249,-0.283307,0.199301,-0.096914
250,-0.540008,0.503416,-0.112572
251,-0.549183,0.881577,0.719491
252,-0.150226,0.467693,0.575061
253,0.526296,0.278719,0.145109
254,0.607142,0.280439,0.051794
255,0.232895,0.148643,0.203749
256,-0.225146,0.043253,0.446781
257,-0.45371,0.01574,0.509583
258,-0.557944,-0.169978,0.454576
259,-0.588317,-0.342283,0.416881
260,-0.454725,-0.378989,0.418319
261,-0.442209,-0.400892,0.417114
262,-0.464813,-0.366634,0.569001
263,-0.46939,-0.429515,0.566913
264,-0.435502,-0.514001,0.494162
265,-0.488116,-0.438409,0.312774
266,-0.45639,-0.35157,0.205643
267,-0.119238,-0.037089,-0.174539
268,0.933329,1.151256,-0.860924
269,1.660717,1.575287,-0.298218
270,0.659842,0.07085,-0.540877
271,0.398829,-0.553903,-0.112714
272,0.171034,-0.324094,0.420587
273,-0.720387,0.627563,1.10339
274,-1.153117,1.866409,-0.80579
275,0.120808,-0.095619,0.416116
276,-0.499948,-0.21921,0.53615
277,-0.62182,-0.136025,1.088212
278,-0.479247,0.013727,0.731916
279,-0.250995,0.270694,0.497913
280,0.282194,0.566969,0.33408
281,-0.032152,0.062612,0.288308
282,-0.343446,-0.057785,0.240968
283,-0.376536,-0.227823,0.261134
284,-0.238401,-0.30808,0.401946
285,-0.058955,-0.255153,0.410435
286,0.13973,-0.164986,0.282081
287,0.262407,-0.113604,0.040376
288,0.263778,-0.087892,-0.061137
289,0.360727,-0.066668,-0.053662
290,0.264604,-0.076992,0.169573
291,0.276886,-0.060008,0.221369
292,0.302572,-0.01893,0.205669
293,0.107111,-0.101506,-0.155387
294,0.185568,-0.022578,-0.16533
295,0.282591,0.081386,-0.00368
296,0.43385,-0.041201,0.344017
297,0.33377,0.040265,0.153736
298,0.261583,0.249071,0.049969
299,0.245019,0.380696,0.104149
300,0.331943,0.194504,0.149529
301,0.344963,-0.048664,0.327392
302,0.177504,0.101268,-0.010815
303,-0.268018,0.401599,0.017766
304,-0.875491,1.354743,0.474468
305,-0.820168,1.152445,0.733149
306,0.132361,0.435932,0.118643
307,0.47419,0.387091,-0.078438
308,0.251842,0.173865,0.107559
309,-0.032977,0.003895,0.390582
310,-0.282737,-0.014084,0.492665
311,-0.451981,-0.139576,0.501647
312,-0.515442,-0.304284,0.438463
313,-0.547599,-0.418963,0.388716
314,-0.545706,-0.444858,0.386706
315,-0.524192,-0.477448,0.467299
316,-0.445411,-0.492256,0.523284
317,-0.406763,-0.57531,0.494071
318,-0.4367,-0.573366,0.404364
319,-0.402177,-0.393983,0.261839
320,-0.039349,-0.031716,-0.08653
321,0.57479,0.816664,-0.853417
322,2.074324,1.749109,-0.222649
323,1.07508,0.57594,-0.65788
324,0.697233,-0.062757,-0.79337
325,-0.100001,0.120326,1.139576
326,-0.572783,0.503823,1.158161
327,-1.254501,1.457304,-0.604389
328,-0.330266,-0.191948,0.132013
329,-0.686044,-0.133249,0.501214
330,-0.571518,-0.046667,1.179533
331,-0.482962,0.062939,1.039149
332,0.131003,0.733553,0.540622
333,0.489509,0.39833,0.303887
334,0.278633,0.069641,0.233278
335,-0.399943,-0.130935,0.293635
336,-0.352841,-0.184215,0.294378
337,-0.297915,-0.233491,0.31687
338,-0.052678,-0.260605,0.361071
339,0.003957,-0.23398,0.29139
340,0.020891,-0.223388,0.199854
341,0.239581,-0.066212,0.016064
342,0.240905,-0.081193,-0.032094
343,0.199563,-0.06923,-0.011568
344,0.295021,-0.032348,0.124555
345,0.235118,-0.095179,0.159968
346,0.313569,-0.067313,-0.03822
347,0.291714,0.064632,-0.176413
348,0.337171,0.117429,0.16577
349,0.409628,0.054273,0.27237
350,0.254711,0.306274,0.141513
351,0.095102,0.425666,0.026651
352,0.405612,0.298284,0.079953
353,0.400901,0.109216,0.20483
354,0.323449,-0.133125,-0.014807
355,0.001235,0.143664,-0.145512
356,-0.486978,0.710574,-0.106218
357,-0.957617,1.462109,0.542825
358,-0.55877,0.701101,0.669826
359,0.193014,0.343537,0.03985
360,0.397619,0.302158,-0.095181
361,0.160535,0.091645,0.188993
362,0.05828,-0.008103,0.365908
363,-0.302919,-0.092173,0.574762
364,-0.455944,-0.213182,0.546228
365,-0.494853,-0.283456,0.53543
366,-0.499606,-0.341863,0.512189
367,-0.504985,-0.417027,0.502585
368,-0.565089,-0.454288,0.538072
369,-0.56245,-0.474453,0.555276
370,-0.419924,-0.645151,0.406416
371,-0.339033,-0.66023,0.306217
372,-0.166629,-0.520072,0.130475
373,0.25139,0.090922,-0.267001
374,0.562354,0.409109,-0.584511
375,1.486277,1.556829,-0.870199
376,0.567053,0.43739,-0.611724
377,0.027548,-0.234379,-0.338018
378,-0.188759,-0.104507,0.202257
379,-0.478389,0.892651,0.879806
380,-1.000873,0.93882,-0.128375
381,-0.68621,0.293349,0.258088
382,-0.487448,-0.180536,0.7354
383,-0.407017,-0.048813,1.096172
384,-0.401724,0.320009,0.604975
385,-0.037681,0.578007,0.389637
386,0.431661,0.371266,0.42738
387,0.172282,0.027831,0.388761
388,-0.221804,-0.128465,0.306275
389,-0.366317,-0.2065,0.287958
390,-0.249668,-0.233616,0.313687
391,-0.089073,-0.178714,0.361857
392,0.074808,-0.124373,0.316528
393,0.112892,-0.116951,0.183301
394,0.245243,-0.054719,0.032361
395,0.255245,-0.080757,0.015385
396,0.276992,-0.094256,0.00284
397,0.161625,-0.139919,0.07461
398,0.194977,-0.127337,0.096122
399,0.230095,-0.082712,0.016533
400,0.307176,-0.03258,-0.089703
401,0.231542,0.121838,0.066069
402,0.286021,0.027912,0.192966
403,0.292259,-0.03728,0.24139
404,0.098407,0.450396,0.068638
405,0.24802,0.322348,0.158288
406,0.358203,0.211295,0.16156
407,0.351514,0.185567,0.058257
408,0.186191,0.293846,0.14017
409,-0.12729,0.279062,0.124403
410,-0.943444,1.403656,0.501666
411,-0.733611,1.083961,0.73115
412,0.358892,0.357669,0.161179
413,0.529773,0.389026,0.063225
414,0.171085,0.234752,0.13912
415,-0.138534,0.084448,0.404043
416,-0.339702,-0.003942,0.49021
417,-0.589854,-0.172418,0.460024
418,-0.576279,-0.334248,0.460994
419,-0.613032,-0.380257,0.512264
420,-0.565016,-0.468568,0.527799
421,-0.536968,-0.519057,0.556578
422,-0.439881,-0.507741,0.566172
423,-0.35436,-0.540493,0.503351
424,-0.359441,-0.483826,0.360151
425,-0.331662,-0.262375,0.172178
426,-0.238603,-0.121027,-0.014304
427,0.487786,0.813138,-0.677051
428,1.716407,1.802641,-0.413181
429,1.01309,0.430024,-0.575359
430,0.424686,-0.535802,-0.427027
431,-0.117398,0.113432,0.758415
432,-0.549833,0.564085,1.415645
433,-0.626244,1.559801,-0.496021
434,0.011515,-0.028574,0.220423
435,-0.707743,-0.197216,0.351055
436,-0.686747,-0.030402,0.656243
437,-0.523779,-0.021781,0.966071
438,-0.348458,0.237003,0.642115
439,0.35623,0.562941,0.39281
440,0.177076,0.028577,0.300389
441,-0.1005,-0.064991,0.234622
442,-0.403746,-0.182105,0.299149
443,-0.382196,-0.235591,0.330504
444,-0.18831,-0.192479,0.388858
445,0.050283,-0.183637,0.314742
446,0.145306,-0.135621,0.192761
447,0.255277,-0.059823,0.038219
448,0.230996,-0.061768,-0.02117
449,0.336195,-0.069499,0.004459
450,0.264942,-0.110782,0.080311
451,0.317053,-0.124385,0.130551
452,0.304359,-0.053223,-0.064845
453,0.330043,0.05447,-0.085821
454,0.329775,0.159414,0.028791
455,0.27409,0.149157,0.184322
456,0.181838,0.354509,0.136431
457,0.214773,0.425564,0.114837
458,0.412463,0.279869,0.102529
459,0.311255,0.047108,0.26243
460,0.223423,-0.043977,0.018011
461,-0.235374,0.304501,-0.015804
462,-0.757763,1.255003,0.024223
463,-0.924099,1.345582,0.701464
464,-0.312978,0.441434,0.542354
465,0.331321,0.333001,0.09405
466,0.443771,0.256475,-0.042417
467,0.203637,0.062032,0.187096
468,-0.058807,-0.035947,0.450547
469,-0.360856,-0.097242,0.580836
470,-0.449644,-0.173898,0.605073
471,-0.591437,-0.368231,0.494477
472,-0.569691,-0.444419,0.465969
473,-0.553985,-0.445866,0.500888
474,-0.497353,-0.382237,0.557291
475,-0.413738,-0.407699,0.569767
476,-0.308429,-0.384584,0.492932
477,-0.306843,-0.349247,0.369561
478,-0.271068,-0.221797,0.147226
479,-0.05514,0.058272,-0.215877
480,0.51457,0.814158,-0.743293
481,1.04179,1.348086,-0.701578
482,1.046655,0.486588,-0.667741
483,0.449706,-0.552843,-0.556696
484,0.188686,-0.532938,-0.022323
485,-0.55074,0.42089,1.203997
486,-0.840068,0.742229,0.237638
487,-0.518424,1.710957,-0.35218
488,-0.003985,-0.062835,0.481424
489,-0.456475,-0.204955,0.598788
490,-0.560561,-0.276669,1.10642
491,-0.457696,-0.019257,0.702396
492,0.069311,0.598765,0.508678
493,0.38339,0.45359,0.347721
494,-0.0478,0.035198,0.233267
495,-0.392646,-0.050756,0.254602
496,-0.433918,-0.160827,0.30902
497,-0.329257,-0.241407,0.419859
498,-0.115475,-0.22538,0.389933
499,0.066799,-0.169101,0.306566
500,0.207857,-0.123324,0.156323
501,0.284929,-0.059369,-0.009181
502,0.342335,-0.086146,0.055033
503,0.30974,-0.105497,0.197229
504,0.282273,-0.058388,0.206267
505,0.281292,-0.041397,0.001422
506,0.20302,-0.055185,-0.274593
507,0.244893,0.073744,-0.068162
508,0.361976,0.112175,0.368598
509,0.378836,0.016451,0.446083
510,0.157238,0.136395,0.132108
511,0.039371,0.399614,0.025494
512,0.276483,0.244529,0.147932
513,0.253383,0.060727,0.329822
514,0.137661,0.006959,0.101909
515,-0.192892,0.486349,-0.007002
516,-0.757262,1.269921,0.120699
517,-0.716785,1.090488,0.66176
518,-0.020749,0.358079,0.422818
519,0.560412,0.284001,0.066501
520,0.531556,0.207303,0.024435
521,0.173237,0.074273,0.260494
522,-0.185915,-0.017947,0.472837
523,-0.526623,-0.098127,0.555239
524,-0.666364,-0.317632,0.466137
525,-0.684576,-0.365747,0.434465
526,-0.574444,-0.379236,0.481713
527,-0.551025,-0.400593,0.486822
528,-0.497531,-0.350203,0.541233
529,-0.416091,-0.362336,0.498232
530,-0.369346,-0.366239,0.443804
531,-0.359951,-0.332451,0.387307
532,-0.313702,-0.166925,0.133207
533,0.123266,0.096538,-0.360506
534,0.79301,0.945227,-0.863134
535,1.804508,1.41204,-0.185944
536,0.830293,0.160931,-0.658589
537,0.382595,-0.550986,-0.233227
538,-0.140559,-0.258139,1.038865
539,-0.625664,0.320919,1.058996
540,-0.996598,1.302791,-0.546612
541,-0.112245,1.415051,-0.025137
542,-0.431591,-0.328944,0.531059
543,-0.580866,-0.16684,0.716001
544,-0.678863,-0.185359,0.995198
545,-0.18992,0.4721,0.463433
546,0.021029,0.73945,0.398664
547,-0.088803,0.18866,0.351943
548,-0.405425,0.004006,0.216094
549,-0.447978,-0.090545,0.355668
550,-0.357386,-0.183593,0.403197
551,-0.129073,-0.226966,0.388346
552,0.102131,-0.199585,0.323998
553,0.235913,-0.18886,0.277066
554,0.284561,-0.20184,0.137747
555,0.249801,-0.206808,0.044555
556,0.231124,-0.129891,0.021859
557,0.240924,-0.133667,0.051818
558,0.257645,-0.125782,0.027174
559,0.2654,-0.001182,-0.038254
560,0.231165,0.005953,-0.103859
561,0.340635,0.089417,0.056563
562,0.372683,0.03443,0.321627
563,0.345036,-0.009514,0.170345
564,0.128785,0.427703,-0.038325
565,0.144519,0.447687,0.023143
566,0.336446,0.18725,0.111447
567,0.324246,0.044718,0.194812
568,0.310502,-0.252129,0.163382
569,0.006479,0.359373,0.06457
570,-0.645959,1.580642,0.006407
571,-1.047481,1.304006,0.899632
572,-0.21957,0.423242,0.455238
573,0.168688,0.396669,0.158675
574,0.543941,0.462721,-0.115568
575,0.307105,0.166553,0.248513
576,-0.060115,0.031027,0.488648
577,-0.388841,-0.069806,0.581701
578,-0.765658,-0.255387,0.546447
579,-0.787118,-0.3422,0.5565
580,-0.64226,-0.487267,0.498959
581,-0.488949,-0.500748,0.550255
582,-0.468506,-0.482495,0.566912
583,-0.406193,-0.517656,0.504962
584,-0.405459,-0.466348,0.395263
585,-0.413561,-0.43349,0.286464
586,-0.422419,-0.336918,0.161892
587,0.411053,0.76521,-0.856838
588,0.969819,1.331553,-1.088869
589,1.786156,1.600896,-0.319897
590,0.244429,-0.500375,-0.398506
591,0.06978,-0.334346,0.083563
592,-0.178397,0.150502,0.562788
593,-0.639153,1.596814,-0.541861
594,-0.257825,1.111861,-0.306846
595,-0.073228,-0.053491,0.130469
596,-0.677497,-0.032811,1.092351
597,-0.706982,0.01857,1.117115
598,-0.614126,0.13518,0.844628
599,0.132676,0.862847,0.460713
600,0.327074,0.312414,0.344672
601,-0.289002,-0.029542,0.324765
602,-0.40239,-0.17331,0.252828
603,-0.349877,-0.242838,0.295428
604,-0.209809,-0.304201,0.469659
605,-0.149444,-0.262408,0.253716
606,-0.13053,-0.189213,0.191773
607,0.080209,-0.127773,0.162659
608,0.255515,-0.162487,0.088989
609,0.305786,-0.171878,0.038874
610,0.321627,-0.096768,-0.071339
611,0.463077,-0.028293,0.004084
612,0.548204,-0.074098,0.025828
613,0.467602,0.126587,0.010375
614,0.367402,0.107753,0.017081
615,0.260312,0.083141,0.11257
616,0.195069,0.447339,0.119652
617,0.080049,0.555379,0.158539
618,0.125246,0.285315,0.172995
619,0.168421,0.163033,0.217277
620,0.057686,0.197011,-0.035592
621,-0.388071,0.500575,-0.130866
622,-0.902241,1.441864,0.308475
623,-0.800671,0.915344,0.866212
624,0.01427,0.34947,0.303611
625,0.517178,0.429148,-0.103935
626,0.243028,0.343425,0.057526
627,0.054532,0.196875,0.260849
628,-0.415163,-0.021843,0.511964
629,-0.53303,-0.188255,0.546602
630,-0.470385,-0.267308,0.573282
631,-0.459457,-0.51657,0.506444
632,-0.451482,-0.550736,0.456414
633,-0.503789,-0.48767,0.599861
634,-0.463424,-0.52457,0.592696
635,-0.384294,-0.56458,0.477036
636,-0.337056,-0.595532,0.397213
637,-0.234751,-0.168378,0.042586
638,0.125695,0.43945,-0.485698
639,0.405643,1.047703,-0.963662
640,1.208096,1.178145,-0.350033
641,0.339734,-0.474209,-0.611477
642,-0.007385,-0.682802,0.174723
643,-0.080552,-0.388543,1.079868
644,-1.11144,1.511991,-0.251019
645,-0.801738,1.985439,-0.21273
646,0.002257,1.403835,0.387784
647,-0.459371,-0.251604,0.739088
648,-0.573219,-0.261441,0.872195
649,-0.539476,-0.19626,0.926204
650,0.265329,1.011445,0.299853
651,0.243639,0.811917,0.320674
652,-0.079753,0.190598,0.348459
653,-0.664991,-0.177969,0.302333
654,-0.575042,-0.216702,0.287242
655,-0.197651,-0.248472,0.428599
656,-0.035144,-0.253204,0.398662
657,0.100433,-0.178274,0.282646
658,0.238765,-0.048494,0.139327
659,0.180525,-0.069126,0.072134
660,0.215428,-0.162535,0.068266
661,0.215521,-0.09181,0.041751
662,0.216927,-0.080137,0.029075
663,0.312331,-0.09236,0.001671
664,0.374909,0.168825,0.034991
665,0.370257,0.126919,0.185166
666,0.361315,0.164862,0.131366
667,0.18507,0.536034,0.054711
668,0.232661,0.447592,0.094373
669,0.326828,0.323095,0.106496
670,0.272159,-0.062867,0.287253
671,0.242041,-0.180208,0.10253
672,-0.057791,0.380897,-0.021997
673,-0.620389,1.391752,0.146472
674,-0.955911,1.159644,1.010048
675,-0.230877,0.410904,0.433586
676,0.327285,0.50871,-0.06745
677,0.330405,0.50484,-0.011918
678,0.204152,0.315049,0.187951
679,-0.066591,0.046966,0.457062
680,-0.28564,-0.05702,0.539547
681,-0.411498,-0.236346,0.570056
682,-0.549319,-0.352785,0.548761
683,-0.636264,-0.507041,0.49816
684,-0.672077,-0.529965,0.508822
685,-0.68479,-0.560532,0.495574
686,-0.567025,-0.494649,0.448725
687,-0.463089,-0.450801,0.439446
688,-0.377,-0.283792,0.372584
689,0.039225,0.288709,-0.14123
690,0.34312,0.532398,-0.448569
691,1.018271,1.208307,-0.568203
692,0.721824,0.401673,-0.258649
693,0.446843,-0.065476,-0.332005
694,0.276285,-0.384277,-0.279793
695,-0.116916,0.392057,1.251981
696,-0.320461,0.665711,1.148949
697,-0.611162,1.471684,-0.506997
698,-0.273588,0.939967,-0.060928
699,-0.511659,-0.14407,0.5482
700,-0.563062,-0.317179,1.130239
701,-0.436684,-0.08841,0.982723
702,-0.192059,0.156652,0.746183
703,0.381466,0.610963,0.439038
704,0.13033,0.004832,0.394836
705,-0.09948,-0.092321,0.328607
706,-0.397831,-0.131177,0.254097
707,-0.342757,-0.126363,0.349467
708,-0.262349,-0.146205,0.33986
709,0.049852,-0.260886,0.323891
710,0.105495,-0.234575,0.29134
711,0.210825,-0.031125,0.17614
712,0.163483,-0.05942,0.033596
713,0.23674,-0.123796,-0.006987
714,0.261432,-0.140252,0.045712
715,0.331244,-0.175592,0.059733
716,0.335581,0.010892,0.017394
717,0.232548,0.257569,0.101945
718,0.292367,0.141826,0.219868
719,0.231977,0.276336,0.12238
720,0.229132,0.485442,0.151528
721,0.390578,0.423343,0.244948
722,0.316862,0.225346,0.317069
723,0.271091,0.064832,0.362521
724,0.011569,0.205391,0.060789
725,-0.384651,0.853803,0.014654
726,-0.675659,1.317776,0.147751
727,-0.55953,0.63153,0.797112
728,0.29965,0.413358,0.360249
729,0.501027,0.400203,0.197973
730,0.236126,0.225952,0.167016
731,-0.118367,0.074989,0.457933
732,-0.34078,0.006677,0.569639
733,-0.41484,-0.081112,0.568702
734,-0.523044,-0.465361,0.558306
735,-0.545684,-0.50188,0.515455
736,-0.574745,-0.542045,0.493337
737,-0.556351,-0.386771,0.683024
738,-0.488838,-0.368245,0.674033
739,-0.432236,-0.376306,0.638554
740,-0.313534,-0.204641,0.320114
741,-0.281659,-0.140976,0.216516
742,-0.199006,-0.085026,-0.017729
743,1.290454,1.050814,-0.655437
744,1.70075,1.201707,-0.03687
745,0.581923,0.076776,-0.337846
746,0.262588,0.026972,-0.046182
747,0.039847,0.29608,0.252643
748,0.237121,0.699573,1.006942
749,-0.00205,0.877876,0.026065
750,-0.682023,0.748494,-0.146922
751,-0.974252,-0.246517,0.77739
752,-0.346799,-0.203086,1.326131
753,-0.315513,-0.000309,1.120829
754,-0.162092,0.450186,0.566859
755,0.423964,0.458935,0.474944
756,0.256464,0.171202,0.304222
757,-0.173855,-0.119062,0.317273
758,-0.394805,-0.207045,0.390161
759,-0.368693,-0.290288,0.286253
760,-0.179331,-0.22692,0.3175
761,0.127256,-0.031929,0.317323
762,0.317015,0.040701,0.284356
763,0.248226,-0.11609,0.213038
764,0.216394,-0.109709,0.145971
765,0.141262,-0.127254,0.216356
766,0.024498,-0.034311,0.183131
767,-0.023741,-0.068249,-0.11469
768,0.268198,-0.091503,-0.092821
769,0.583618,0.052339,0.256397
770,0.203041,0.229647,0.207814
771,0.211473,0.18285,0.166863
772,0.240538,0.133598,0.128529
773,0.260619,0.488712,0.194481
774,0.337043,0.411878,0.200066
775,0.425717,0.278905,0.135848
776,0.511107,-0.115109,0.280793
777,0.474676,-0.080971,0.190843
778,0.310295,-0.010221,0.203176
779,-0.705924,1.347227,0.222313
780,-0.953577,1.403125,0.543774
781,-0.936705,0.943401,0.712966
782,0.271356,0.372582,0.068006
783,0.332206,0.359275,0.00761
784,0.275097,0.341012,0.062488
785,-0.055087,0.036387,0.479326
786,-0.137447,-0.009817,0.5266
787,-0.355146,-0.150177,0.541982
788,-0.463675,-0.307521,0.548656
789,-0.637562,-0.431245,0.509527
790,-0.64576,-0.483351,0.553824
791,-0.546426,-0.412266,0.587676
792,-0.460462,-0.412712,0.599938
793,-0.323901,-0.425739,0.501745
794,-0.260742,-0.357518,0.337589
795,-0.201422,-0.317462,0.206426
796,0.207707,-0.02511,-0.473254
797,1.020391,1.008729,-0.799526
798,1.898005,1.557951,-0.144862
799,0.674563,0.247692,-0.672074
800,0.087785,-0.183345,-0.114111
801,-0.256044,0.03617,0.537012
802,-0.724468,0.842909,1.250061
803,-0.896551,1.091884,0.01847
804,-0.263156,0.568425,-0.156547
805,-0.474237,-0.158924,0.688549
806,-0.566342,-0.161127,1.077038
807,-0.576588,0.025867,0.819194
808,-0.096054,0.519928,0.606488
809,0.429353,0.635948,0.492153
810,0.212533,0.075386,0.371125
811,-0.202766,-0.173439,0.272469
812,-0.385446,-0.231413,0.301889
813,-0.310627,-0.252296,0.336376
814,-0.147394,-0.205712,0.405764
815,0.050609,-0.210467,0.36218
816,0.092576,-0.228535,0.297336
817,0.280227,-0.11991,0.074497
818,0.338219,-0.034438,0.04051
819,0.361779,0.073687,0.03557
820,0.248334,-0.055505,0.141759
821,0.318587,-0.150963,0.167416
822,0.329967,-0.092366,0.014753
823,0.409493,-0.013359,-0.07849
824,0.23999,0.123652,0.318678
825,0.244278,0.103729,0.326915
826,0.153263,0.213984,0.243574
827,0.237632,0.352918,0.078859
828,0.410603,0.281008,0.085298
829,0.492178,0.201273,0.150942
830,0.27661,-0.267623,0.126754
831,0.130034,-0.111919,0.187468
832,-0.040988,0.347891,0.162736
833,-0.877195,1.159925,0.974238
834,-0.537562,0.639419,0.752156
835,0.391446,0.532928,-0.087028
836,0.287365,0.434919,0.049896
837,0.183486,0.260026,0.234367
838,-0.106994,0.004263,0.52829
839,-0.266969,-0.132234,0.576346
840,-0.376364,-0.216255,0.589973
841,-0.554621,-0.429138,0.536825
842,-0.596973,-0.50056,0.505784
843,-0.594436,-0.498462,0.581459
844,-0.505003,-0.438592,0.680144
845,-0.415631,-0.449005,0.596107
846,-0.387447,-0.415958,0.4542
847,-0.330898,-0.244403,0.355048
848,-0.239646,-0.084493,0.053833
849,0.267983,0.269562,-0.544154
850,1.204584,1.444468,-0.92968
851,1.516009,1.303616,-0.279985
852,0.543805,-0.263653,-0.580195
853,0.138261,-0.349336,0.167871
854,-0.308079,0.579156,1.113455
855,-0.485619,1.068725,0.965
856,-0.477407,1.256263,-0.669629
857,-0.329684,-0.256841,0.30234
858,-0.556052,-0.175967,0.62254
859,-0.600773,-0.179502,1.118126
860,-0.263309,0.335314,0.623113
861,0.027396,0.561162,0.601658
862,0.300322,0.707534,0.5344
863,-0.078929,-0.072952,0.314421
864,-0.249089,-0.162818,0.283418
865,-0.347447,-0.23555,0.2666
866,-0.159925,-0.293708,0.492139
867,-0.04813,-0.263751,0.472702
868,0.04887,-0.231095,0.407784
869,0.253048,-0.059922,0.068398
870,0.264204,-0.054139,-0.002617
871,0.223387,-0.102029,-0.014815
872,0.177684,-0.158076,0.146117
873,0.234799,-0.111049,0.133445
874,0.272106,-0.063463,0.102826
875,0.314742,0.06154,-0.006552
876,0.370821,0.133326,0.095764
877,0.40666,0.155044,0.222848
878,0.188078,0.28906,0.162875
879,0.100717,0.491217,0.130969
880,0.339906,0.34223,0.16843
881,0.402917,0.19207,0.317556
882,0.409412,0.017449,0.401699
883,-0.058876,0.236889,-0.039263
884,-0.623527,0.966434,0.050995
885,-0.945118,1.410698,0.406676
886,-0.489031,0.529755,0.594542
887,0.252397,0.390943,-0.030238
888,0.397801,0.492113,-0.091087
889,0.182962,0.224099,0.260556
890,-0.123024,0.05019,0.514327
891,-0.385947,-0.091203,0.526076
892,-0.39881,-0.255115,0.57064
893,-0.453325,-0.305319,0.542843
894,-0.537639,-0.457181,0.468982
895,-0.595477,-0.449649,0.545483
896,-0.519358,-0.415462,0.593463
897,-0.411132,-0.490065,0.605613
898,-0.342629,-0.479212,0.532954
899,-0.30276,-0.422594,0.378062
900,-0.290573,-0.278227,0.158002
901,0.094655,0.025497,-0.389014
902,0.850121,1.03919,-1.075467
903,2.019702,1.766739,0.084537
904,0.539338,0.068868,-0.61599
905,0.213124,-0.76675,-0.21627
906,-0.00699,-0.391698,0.546612
907,-0.780115,0.681554,1.271163
908,-1.257039,2.199263,-1.175143
909,0.661896,0.369241,0.453129
910,-0.366481,-0.555747,0.635685
911,-0.711928,-0.314336,0.835221
912,-0.62828,-0.244117,1.047228
913,-0.242714,0.553331,0.520815
914,0.218158,0.607072,0.438879
915,0.147082,0.156898,0.419199
916,-0.047947,-0.034867,0.304251
917,-0.365361,-0.241149,0.335391
918,-0.290921,-0.269287,0.39278
919,-0.19889,-0.281245,0.439942
920,0.085412,-0.190735,0.338205
921,0.152169,-0.145462,0.288143
922,0.228712,-0.110488,0.210807
923,0.298965,-0.103627,0.027918
924,0.281163,-0.094384,0.041432
925,0.266758,-0.078968,0.077909
926,0.246233,-0.113389,0.069122
927,0.24886,-0.10025,0.046378
928,0.290383,0.180557,0.058484
929,0.314818,0.150685,0.284282
930,0.360972,0.085438,0.27541
931,0.118664,0.514016,0.095942
932,0.160308,0.295666,0.16108
933,0.316256,0.251377,0.177849
934,0.401962,-0.112647,0.178205
935,0.212809,-0.026747,0.149472
936,-0.239736,0.659435,-0.010157
937,-0.947719,1.421056,0.503273
938,-0.747178,0.832901,0.918997
939,0.162324,0.407829,0.18744
940,0.506412,0.564669,-0.065707
941,0.332333,0.401756,0.13333
942,0.054459,0.090542,0.43918
943,-0.254252,0.000733,0.575899
944,-0.475169,-0.159572,0.591782
945,-0.48323,-0.32381,0.565598
946,-0.54052,-0.420165,0.540861
947,-0.599958,-0.505914,0.535422
948,-0.590889,-0.479534,0.58849
949,-0.522569,-0.454713,0.629584
950,-0.445086,-0.479307,0.546904
951,-0.428082,-0.469307,0.481012
952,-0.373933,-0.220448,0.300298
953,-0.163386,0.001644,-0.082463
954,0.181844,0.210641,-0.357851
955,1.747397,1.63532,-0.321701
956,0.741122,-0.163787,-0.548701
957,0.486696,-0.607834,-0.488944
958,0.290227,-0.574978,-0.06329
959,-0.443315,0.744989,1.323394
960,-0.562945,1.064679,0.444002
961,-0.601548,1.790752,-0.691418
962,-0.595271,-0.355455,0.508216
963,-0.598644,-0.116464,0.693603
964,-0.63623,-0.123375,1.045976
965,-0.302838,0.533188,0.623683
966,0.000482,0.779957,0.543534
967,0.267765,0.775879,0.465136
968,-0.206615,-0.059005,0.346373
969,-0.301974,-0.122304,0.279433
970,-0.373213,-0.21295,0.303424
971,-0.256788,-0.255068,0.50886
972,-0.096195,-0.225772,0.453218
973,0.042905,-0.173133,0.280976
974,0.210987,-0.063945,0.184492
975,0.309404,-0.057433,0.138224
976,0.314308,-0.118692,0.012085
977,0.394522,-0.061867,0.046976
978,0.398921,-0.041815,0.09466
979,0.414467,-0.067262,0.032758
980,0.423647,0.14446,-0.000746
981,0.434523,0.115225,0.178202
982,0.279662,0.060018,0.253572
983,0.146709,0.405827,0.155302
984,0.152901,0.459216,0.146247
985,0.241904,0.295759,0.193479
986,0.210763,0.02748,0.245616
987,0.169882,-0.097021,0.150133
988,-0.158389,0.414527,0.060591
989,-0.798174,1.35384,0.195023
990,-0.8389,1.186701,0.893106
991,-0.095306,0.41165,0.449283
992,0.471972,0.509759,-0.003287
993,0.489185,0.519032,0.018049
994,0.220948,0.188174,0.292783
995,-0.072521,0.053006,0.533115
996,-0.261833,0.022707,0.589758
997,-0.530986,-0.232729,0.586172
998,-0.660489,-0.390716,0.544515
999,-0.673419,-0.461915,0.527216
1000,-0.610923,-0.530222,0.605981
1001,-0.5311,-0.483626,0.683362
1002,-0.421518,-0.483115,0.634551
1003,-0.332059,-0.487955,0.529632
1004,-0.356772,-0.38211,0.359113
1005,-0.325302,-0.262057,0.23391
1006,0.16382,0.311101,-0.389938
1007,1.653113,1.780062,-0.32187
1008,1.790577,1.6196,-0.167286
1009,1.152245,0.833403,-0.429253
1010,0.115553,-0.52693,0.604453
1011,-0.1257,-0.169959,1.268663
1012,-0.354183,0.206953,1.46816
1013,-0.590957,2.103516,-0.609561
1014,0.032659,1.242805,0.033115
1015,0.132774,0.013942,0.616644
1016,-0.640512,-0.247518,1.151489
1017,-0.618728,-0.253091,1.101822
1018,-0.046227,0.626556,0.498456
1019,0.28167,0.731629,0.350078
1020,0.176621,0.258207,0.370983
1021,-0.339336,-0.114981,0.295742
1022,-0.416492,-0.164548,0.328601
1023,-0.356652,-0.214354,0.343464
1024,-0.060553,-0.261113,0.474658
1025,0.13111,-0.27504,0.423524
1026,0.221639,-0.141109,0.318396
1027,0.26889,-0.0025,0.148528
1028,0.307539,-0.033357,-0.00658
1029,0.301742,-0.03771,0.031706
1030,0.417217,-0.050591,0.116724
1031,0.402613,-0.12345,0.130339
1032,0.381276,-0.032837,0.062072
1033,0.24359,0.187533,0.081191
1034,0.275912,0.047434,0.243321
1035,0.283587,0.194853,0.189444
1036,0.189488,0.4941,0.2151
1037,0.181914,0.325951,0.244987
1038,0.313128,0.261071,0.278853
1039,0.370582,-0.029068,0.197706
1040,0.105134,0.160973,0.158465
1041,-0.416382,0.880466,-0.005264
1042,-0.966369,1.347661,0.501328
1043,-0.531109,0.485959,0.690385
1044,0.191727,0.41211,0.188726
1045,0.486803,0.518093,-0.005422
1046,0.280125,0.148167,0.304496
1047,-0.053674,0.034899,0.584991
1048,-0.272661,0.105503,0.613072
1049,-0.373361,-0.084314,0.554264
1050,-0.478038,-0.148034,0.492894
1051,-0.652153,-0.422523,0.411105
1052,-0.59725,-0.494557,0.543112
1053,-0.531692,-0.47025,0.623027
1054,-0.430226,-0.499499,0.593578
1055,-0.452526,-0.481906,0.572507
1056,-0.506598,-0.465062,0.525242
1057,-0.533368,-0.19026,0.293025
1058,-0.191962,0.12968,-0.184896
1059,0.254398,0.400679,-0.525712
1060,2.062984,1.787589,0.090702
1061,0.706527,-0.517701,-0.740519
1062,0.480403,-0.553421,-0.394795
1063,-0.091151,0.143558,1.138295
1064,-0.747226,0.519675,1.231187
1065,-0.801204,1.365383,-0.509266
1066,0.118126,0.311179,0.155701
1067,-0.395463,-0.180526,0.518125
1068,-0.609204,0.01521,0.969276
1069,-0.684305,0.059246,0.964524
1070,-0.240224,0.471925,0.66128
1071,0.230619,0.675977,0.345152
1072,-0.078462,0.05693,0.313769
1073,-0.227038,-0.032061,0.287583
1074,-0.291418,-0.152389,0.307035
1075,-0.261398,-0.302308,0.58832
1076,-0.2051,-0.310219,0.576432
1077,-0.035559,-0.256969,0.279487
1078,0.128882,-0.115373,0.14574
1079,0.302864,-0.147666,0.111174
1080,0.271063,-0.192772,0.171513
1081,0.263735,-0.078207,0.240574
1082,0.220226,0.059485,0.180527
1083,0.188394,0.013746,0.009491
1084,0.285556,0.004319,-0.063292
1085,0.414243,0.098292,0.087059
1086,0.428983,0.033814,0.36173
1087,0.256999,0.028293,0.279968
1088,0.019846,0.477498,-0.007963
1089,0.174422,0.423379,0.050946
1090,0.434293,0.242612,0.169815
1091,0.315974,0.001791,0.319983
1092,0.284499,-0.279317,0.251363
1093,0.047306,0.243398,0.087433
1094,-0.566939,1.301715,-0.028838
1095,-0.986245,1.635277,0.453754
1096,-0.367892,0.465784,0.67135
1097,0.453549,0.49087,-0.08962
1098,0.403753,0.541941,-0.096476
1099,0.246425,0.450441,0.032784
1100,-0.202271,0.045939,0.581417
1101,-0.349404,0.001581,0.626214
1102,-0.407108,-0.038067,0.641256
1103,-0.615851,-0.264334,0.519875
1104,-0.635944,-0.328019,0.515365
1105,-0.587922,-0.372773,0.501034
1106,-0.383165,-0.423537,0.588805
1107,-0.359721,-0.44505,0.602166
1108,-0.367313,-0.430136,0.592759
1109,-0.365272,-0.383666,0.519402
1110,-0.345465,-0.333213,0.3464
1111,-0.175537,-0.204577,-0.027433
1112,0.45982,0.201415,-0.494537
1113,0.811333,0.604306,-0.58235
1114,1.658089,1.70319,-0.105827
1115,0.61965,0.029853,-0.573715
1116,0.475907,-0.602081,-0.549219
1117,-0.235953,0.252717,1.022861
1118,-0.74726,0.791896,1.346697
1119,-1.244003,1.81877,-1.150352
1120,0.078639,0.24893,0.308712
1121,-0.406856,-0.331227,0.72429
1122,-0.504436,-0.218653,0.797715
1123,-0.539527,-0.110722,1.063202
1124,0.113544,0.633465,0.588987
1125,0.344528,0.710853,0.505694
1126,0.431357,0.542521,0.439526
1127,-0.326036,-0.013295,0.17745
1128,-0.312396,-0.12674,0.216651
1129,-0.288685,-0.202933,0.310401
1130,-0.189451,-0.260774,0.430922
1131,-0.075156,-0.212187,0.359223
1132,0.07553,-0.143136,0.303227
1133,0.316791,-0.111355,0.144068
1134,0.266024,-0.160036,0.122561
1135,0.112526,-0.134742,0.166985
1136,0.130813,-0.100756,0.127429
1137,0.167791,-0.067609,0.048751
1138,0.246972,-0.038831,0.058645
1139,0.399675,0.068482,0.220127
1140,0.431508,0.013962,0.335695
1141,0.319979,0.011115,0.260931
1142,0.071981,0.400987,0.094212
1143,0.021979,0.494685,0.100315
1144,0.360572,0.291193,0.234128
1145,0.328073,0.03407,0.317011
1146,0.281021,-0.076701,0.25032
1147,-0.10622,0.385416,0.152751
1148,-0.51457,1.239694,0.257006
1149,-0.794172,1.189183,0.688687
1150,-0.323404,0.47515,0.510553
1151,0.24839,0.461768,0.053073
1152,0.230291,0.429294,-0.053792
1153,0.04458,0.202238,0.213135
1154,-0.220322,0.086035,0.497896
1155,-0.407973,-0.030384,0.564885
1156,-0.420335,-0.188021,0.59081
1157,-0.490222,-0.283363,0.562899
1158,-0.508391,-0.318875,0.572749
1159,-0.51779,-0.388949,0.570412
1160,-0.516672,-0.367706,0.663192
1161,-0.454968,-0.421646,0.640161
1162,-0.407976,-0.491083,0.609814
1163,-0.32975,-0.346662,0.293811
1164,-0.273767,-0.278933,0.158199
1165,-0.158351,-0.242191,-0.038803
1166,1.097653,1.465605,-0.57154
1167,2.014197,2.226936,-0.231776
1168,1.703389,2.011474,-0.429696
1169,0.204664,-0.704392,0.393465
1170,-0.212802,-0.157498,0.994199
1171,-0.645784,0.409953,1.439489
1172,-0.487111,1.249351,-0.664655
1173,0.114923,0.863609,0.051092
1174,0.025991,0.490631,0.29225
1175,-0.548159,-0.092218,1.13647
1176,-0.620841,-0.079136,1.042834
1177,-0.564173,0.037748,0.785324
1178,0.242209,0.641872,0.459801
1179,0.278144,0.371513,0.408372
1180,-0.116324,-0.074814,0.39253
1181,-0.367119,-0.186365,0.299318
1182,-0.354624,-0.232384,0.296321
1183,-0.151992,-0.259723,0.424192
1184,-0.023241,-0.203081,0.371361
1185,0.044305,-0.093533,0.267778
1186,0.198104,-0.032861,0.096082
1187,0.211397,-0.116017,0.004553
1188,0.269392,-0.121789,0.011175
1189,0.238638,-0.131052,0.189108
1190,0.256152,-0.087512,0.221405
1191,0.222453,-0.082594,0.159201
1192,0.271891,0.100176,-0.050192
1193,0.349898,0.161806,0.201701
1194,0.333033,0.083277,0.33449
1195,0.077673,0.19896,0.19086
1196,-0.055524,0.45889,0.110548
1197,0.223028,0.346807,0.209493
1198,0.287761,0.213826,0.325166
1199,0.191052,-0.028394,0.328988
1200,0.087567,0.017406,0.17559
1201,-0.437192,0.584555,0.073752
1202,-0.900918,1.422212,0.309396
1203,-0.86335,1.343752,0.635396
1204,0.11242,0.346288,0.391965
1205,0.520429,0.405714,0.124348
1206,0.474164,0.406307,0.111585
1207,0.050213,0.13341,0.415664
1208,-0.37922,-0.013357,0.580135
1209,-0.396896,0.007624,0.600131
1210,-0.521727,-0.256197,0.616168
1211,-0.509453,-0.349614,0.581631
1212,-0.558138,-0.359143,0.560967
1213,-0.548183,-0.371803,0.547951
1214,-0.497929,-0.393011,0.59547
1215,-0.449075,-0.400288,0.536607
1216,-0.396898,-0.384301,0.478283
1217,-0.23538,-0.154478,0.271669
1218,-0.13992,-0.097292,0.09419
1219,0.326823,0.229873,-0.409232
1220,0.941955,0.931189,-0.597829
1221,1.532286,1.29825,-0.016938
1222,0.575586,0.235088,-0.435147
1223,0.233047,-0.587917,-0.176501
1224,-0.06179,0.093308,0.714397
1225,-0.3589,0.883889,0.771021
1226,-0.616013,1.765227,-0.396738
1227,-0.33698,-0.114262,0.40909
1228,-0.658642,-0.220765,0.641696
1229,-0.61903,-0.192601,1.177076
1230,-0.532592,0.092278,1.002526
1231,-0.140501,0.777674,0.629147
1232,0.356703,0.664299,0.391763
1233,0.153942,0.089106,0.361902
1234,-0.264505,-0.016894,0.36568
1235,-0.335016,-0.112211,0.356269
1236,-0.305377,-0.172288,0.372009
1237,-0.139634,-0.25489,0.487773
1238,-0.04862,-0.238906,0.422967
1239,0.000283,-0.1402,0.274697
1240,0.114334,-0.082637,0.139301
1241,0.151987,-0.107344,0.069878
1242,0.288187,-0.115248,0.114762
1243,0.307516,-0.082629,0.259166
1244,0.322129,-0.020992,0.250105
1245,0.208411,-0.071714,0.118275
1246,0.207947,0.042642,-0.022252
1247,0.23848,0.145175,0.168602
1248,0.288879,0.127197,0.315216
1249,0.378767,0.083032,0.313925
1250,0.145166,0.459317,0.124239
1251,0.140313,0.326001,0.139011
1252,0.239068,0.280882,0.168983
1253,0.332999,-0.097063,0.381887
1254,0.33923,-0.299054,0.301461
1255,0.219629,-0.183065,0.178837
1256,-0.602911,1.387604,0.225228
1257,-0.874286,1.704018,0.422014
1258,-0.786034,0.838759,0.73033
1259,-0.159403,0.315019,0.401675
1260,0.112271,0.331297,0.219318
1261,0.332022,0.30396,0.082488
1262,0.088483,0.067624,0.315699
1263,-0.116397,-0.016551,0.552252
1264,-0.500111,-0.055859,0.617227
1265,-0.633096,-0.195244,0.557162
1266,-0.642798,-0.311129,0.48132
1267,-0.509237,-0.353602,0.502329
1268,-0.427706,-0.311422,0.609987
1269,-0.341212,-0.229821,0.63604
1270,-0.30255,-0.258827,0.658811
1271,-0.309517,-0.34732,0.569124
1272,-0.333022,-0.309658,0.393413
1273,-0.276586,-0.24061,0.182399
1274,-0.022213,-0.085608,-0.20146
1275,0.577504,0.770132,-0.687151
1276,1.820372,1.665689,-0.21759
1277,0.780207,-0.191315,-0.783636
1278,0.175093,-0.754166,0.033895
1279,-0.336423,-0.245926,1.326602
1280,-0.745035,0.478663,1.195531
1281,-0.97837,1.069167,-0.210681
1282,-0.028053,1.474047,0.116987
1283,-0.036762,-0.061203,0.646227
1284,-0.373796,-0.223598,0.519759
1285,-0.647696,-0.201095,0.984007
1286,-0.390971,0.093364,0.787608
1287,-0.106476,0.331373,0.638758
1288,0.442308,0.549939,0.415467
1289,0.232227,0.05006,0.397247
1290,0.025765,-0.054957,0.346588
1291,-0.282225,-0.115834,0.294088
1292,-0.311893,-0.21182,0.342248
1293,-0.29906,-0.26188,0.364832
1294,-0.242426,-0.244787,0.331675
1295,-0.084114,-0.167483,0.300996
1296,0.091755,-0.159679,0.185372
1297,0.257084,-0.163496,0.11863
1298,0.221103,-0.155246,0.243985
1299,0.201331,-0.0068,0.299378
1300,0.212226,0.099156,0.075719
1301,0.34946,0.130879,-0.127686
1302,0.391213,0.15268,0.018566
1303,0.44902,0.147252,0.225586
1304,0.330916,0.085305,0.277293
1305,0.328293,0.085218,0.277756
1306,-0.110922,0.580361,-0.073099
1307,0.31653,0.248153,0.308223
1308,0.29913,0.152126,0.443763
1309,0.25586,-0.060843,0.380288
1310,-0.07466,0.029315,0.113096
1311,-0.553567,0.530642,-0.077833
1312,-1.013459,1.750645,0.326607
1313,-0.25572,0.419761,0.713026
1314,0.208911,0.269873,0.475043
1315,0.509237,0.262132,0.289991
1316,0.342328,0.237301,0.237233
1317,0.119679,0.186928,0.399046
1318,-0.097843,0.183202,0.549962
1319,-0.619752,-0.135699,0.585412
1320,-0.694603,-0.249774,0.627049
1321,-0.676895,-0.315297,0.607768
1322,-0.636143,-0.374484,0.536804
1323,-0.447036,-0.372286,0.701362
1324,-0.298576,-0.352051,0.679489
1325,-0.231149,-0.398576,0.540661
1326,-0.23411,-0.400119,0.455057
1327,-0.282653,-0.276741,0.226136
1328,-0.033052,-0.034118,-0.115586
1329,0.254609,0.193298,-0.320165
1330,1.708416,1.757061,0.071445
1331,1.098309,0.795656,-0.400763
1332,0.637398,-0.028279,-0.603969
1333,-0.036357,-0.083346,0.575198
1334,-0.406604,0.50996,1.372389
1335,-0.41517,0.684534,1.362992
1336,-0.068398,1.091838,-0.266861
1337,-0.693815,-0.110619,0.191118
1338,-0.698365,-0.067269,0.913934
1339,-0.579285,-0.225975,1.295933
1340,-0.436977,0.329398,0.728582
1341,0.083052,0.819673,0.506255
1342,0.327558,0.296592,0.292522
1343,-0.152126,-0.06506,0.332871
1344,-0.420977,-0.139681,0.409902
1345,-0.435337,-0.202632,0.392705
1346,-0.167521,-0.211882,0.536488
1347,0.065614,-0.12701,0.499755
1348,0.14553,-0.042058,0.300931
1349,0.222987,-0.037965,0.115415
1350,0.299402,-0.040017,0.075935
1351,0.271247,-0.015764,0.134443
1352,0.29404,-0.063105,0.259128
1353,0.266782,-0.093444,0.210904
1354,0.277629,-0.07916,0.127282
1355,0.280884,0.012473,0.020372
1356,0.329445,0.100075,0.031864
1357,0.239403,0.057481,0.380238
1358,0.121937,0.286425,0.276782
1359,0.072297,0.468957,0.22241
1360,0.115023,0.49581,0.214439
1361,0.34446,0.192668,0.398318
1362,0.316946,0.103704,0.470479
1363,0.273014,0.00223,0.357198
1364,-0.526441,0.660414,0.103369
1365,-0.773775,1.076897,0.118821
1366,-0.932091,1.438555,0.268376
1367,0.016071,0.32256,0.450724
1368,0.257224,0.278429,0.352633
1369,0.459904,0.291286,0.259572
1370,0.300568,0.015482,0.345305
1371,0.1362,0.014308,0.503708
1372,-0.0233,0.017069,0.601324
1373,-0.51386,-0.125504,0.654353
1374,-0.647702,-0.184406,0.648813
1375,-0.715661,-0.340676,0.535276
1376,-0.59611,-0.347356,0.608335
1377,-0.524532,-0.311391,0.693084
1378,-0.370106,-0.274628,0.630765
1379,-0.271039,-0.259089,0.537547
1380,-0.253743,-0.234958,0.495481
1381,-0.211279,-0.100635,0.278333
1382,-0.092596,0.006334,-0.130236
1383,0.178224,0.189574,-0.411978
1384,1.488406,1.576452,-0.181389
1385,1.242886,0.921282,-0.385966
1386,0.830994,-0.004583,-0.583673
1387,0.24618,-0.499031,0.53742
1388,-0.152915,0.092617,1.369549
1389,-0.352412,0.27556,1.227291
1390,-0.604026,1.634467,-0.559701
1391,0.222285,0.961711,0.160329
1392,-0.444891,-0.361895,0.566284
1393,-0.677967,-0.252035,0.891037
1394,-0.693805,-0.274986,1.034765
1395,-0.242927,0.259225,0.729948
1396,0.257212,0.84396,0.550939
1397,0.43365,0.278887,0.474293
1398,-0.103811,-0.072895,0.373307
1399,-0.289493,-0.123576,0.328546
1400,-0.306685,-0.131046,0.397825
1401,-0.265412,-0.143587,0.41042
1402,-0.026354,-0.217606,0.435868
1403,0.07037,-0.203317,0.405836
1404,0.183292,-0.120719,0.348146
1405,0.207722,-0.116232,0.183531
1406,0.210863,-0.081822,0.055104
1407,0.243578,-0.004584,0.049625
1408,0.337355,-0.01422,0.139921
1409,0.4098,-0.029474,0.064752
1410,0.421015,0.052967,0.046273
1411,0.379675,0.121373,0.099463
1412,0.281042,0.073738,0.304495
1413,0.183238,0.248664,0.21229
1414,0.043049,0.448041,0.158592
1415,0.349034,0.312412,0.149642
1416,0.445682,0.227122,0.237114
1417,0.363684,0.082491,0.346371
1418,0.124142,-0.032143,0.139605
1419,-0.104264,0.352288,0.060965
1420,-1.019068,1.616789,0.673383
1421,-0.698641,0.75912,0.939933
1422,-0.278197,0.452389,0.521584
1423,0.417966,0.538622,-0.123847
1424,0.317945,0.322195,0.184073
1425,0.226737,0.163607,0.353904
1426,-0.166599,0.030745,0.584869
1427,-0.407616,-0.116887,0.612915
1428,-0.477586,-0.191915,0.652338
1429,-0.563045,-0.360883,0.617004
1430,-0.568959,-0.412231,0.51615
1431,-0.57206,-0.434891,0.582431
1432,-0.440117,-0.449591,0.672743
1433,-0.270203,-0.541399,0.573399
1434,-0.241815,-0.553684,0.489833
1435,-0.198992,-0.383559,0.271187
1436,-0.033484,-0.031536,-0.040589
1437,0.439043,0.73054,-0.52616
1438,1.626224,2.028807,-0.335291
1439,1.075028,0.861178,-0.554449
1440,0.247398,-0.817226,-0.54083
1441,-0.055312,-0.127839,0.72852
1442,-0.654991,1.094928,0.69058
1443,-0.835388,1.383484,-0.080272
1444,0.065709,0.599819,0.364818
1445,-0.313177,-0.359445,0.682117
1446,-0.475794,-0.169787,0.674411
1447,-0.44424,-0.027022,1.093735
1448,-0.31741,0.376903,0.671089
1449,-0.011169,0.624511,0.635001
1450,0.387932,0.325682,0.53372
1451,-0.122635,-0.004045,0.337087
1452,-0.415761,-0.065447,0.335917
1453,-0.448689,-0.141724,0.374927
1454,-0.30434,-0.170454,0.44291
1455,-0.146777,-0.185316,0.444594
1456,-0.052492,-0.16595,0.398502
1457,0.075481,-0.094211,0.293402
1458,0.218648,-0.083304,0.172188
1459,0.334754,-0.098954,0.104111
1460,0.373515,-0.099183,0.190827
1461,0.406907,-0.114054,0.227403
1462,0.424248,-0.125635,0.231928
1463,0.355972,-0.014104,-0.044671
1464,0.396583,0.107055,-0.009953
1465,0.444056,0.000864,0.41334
1466,0.239495,0.229493,0.271196
1467,0.143681,0.431031,0.220297
1468,0.278906,0.419418,0.2546
1469,0.258948,0.214832,0.416401
1470,0.233213,0.054109,0.333328
1471,-0.157445,0.292171,0.027079
1472,-0.677793,1.209434,0.123159
1473,-0.94652,1.620208,0.488642
1474,-0.364578,0.52979,0.653949
1475,0.329209,0.482601,0.170484
1476,0.428546,0.496246,0.073644
1477,0.196209,0.162,0.337439
1478,-0.032924,0.095566,0.53812
1479,-0.184258,0.095064,0.603329
1480,-0.415626,-0.12008,0.606569
1481,-0.522772,-0.282257,0.607475
1482,-0.574085,-0.414467,0.565331
1483,-0.619559,-0.497843,0.563653
1484,-0.53618,-0.487645,0.716996
1485,-0.411124,-0.521777,0.698411
1486,-0.285955,-0.648883,0.579895
1487,-0.207405,-0.643121,0.436154
1488,-0.183133,-0.34399,0.224703
1489,-0.09596,-0.115636,0.001665
1490,0.790629,1.282319,-0.783926
1491,1.683798,1.978717,-0.241939
1492,0.671573,0.209717,-0.714
1493,0.142611,-0.637841,-0.162748
1494,-0.051232,-0.250815,0.702494
1495,-0.595853,0.965907,1.183406
1496,-0.813288,1.673128,-0.270197
1497,-0.244175,-0.112639,0.210677
1498,-0.522594,-0.245481,0.656783
1499,-0.568399,-0.096452,1.133711
1500,-0.536733,0.059664,0.873084
1501,0.018947,0.609055,0.799623
1502,0.473551,0.809242,0.605183
1503,0.130926,0.134214,0.330279
1504,-0.381887,-0.045302,0.260535
1505,-0.505583,-0.183464,0.361629
1506,-0.425527,-0.291268,0.47277
1507,-0.280439,-0.265757,0.594895
1508,-0.087907,-0.166135,0.443731
1509,0.047895,-0.012299,0.189676
1510,0.364954,-0.006308,0.071889
1511,0.351372,-0.071932,0.094494
1512,0.375446,-0.116177,0.244066
1513,0.330285,-0.158395,0.257809
1514,0.34365,-0.125355,0.110512
1515,0.391207,0.089539,-0.065871
1516,0.332567,0.192822,0.24452
1517,0.362602,0.010609,0.423329
1518,0.385773,0.023472,0.333956
1519,0.119036,0.49371,0.178713
1520,0.144163,0.310864,0.201928
1521,0.222811,0.212484,0.238056
1522,0.410048,-0.122257,0.2801
1523,0.111179,0.180765,0.237952
1524,-0.1508,0.630773,0.149377
1525,-1.266874,1.60718,0.844243
1526,-0.711491,0.576804,0.804284
1527,-0.251224,0.43226,0.437165
1528,0.34567,0.52758,-0.099358
1529,0.24759,0.27927,0.165976
1530,0.087763,0.055283,0.492215
1531,-0.212327,-0.029324,0.636487
1532,-0.465965,-0.267942,0.650837
1533,-0.517593,-0.315976,0.635408
1534,-0.562881,-0.361942,0.620021
1535,-0.568653,-0.500649,0.570504
1536,-0.563735,-0.493889,0.569109
1537,-0.516332,-0.496072,0.665165
1538,-0.351411,-0.527116,0.589923
1539,-0.305141,-0.52015,0.538382
1540,-0.253067,-0.222536,0.31081
1541,0.022335,0.129027,-0.115899
1542,0.324431,0.441926,-0.379337
1543,1.908896,2.19026,-0.236674
1544,0.648719,-0.38477,-0.636829
1545,0.614547,-0.354589,-0.610842
1546,-0.196492,-0.342646,0.909403
1547,-0.815058,0.920151,0.9268
1548,-0.894085,1.160128,0.139277
1549,-0.086988,1.460587,0.235756
1550,-0.095751,-0.224678,0.701607
1551,-0.591411,-0.088978,0.588738
1552,-0.753613,-0.152982,1.035563
1553,-0.484509,0.346984,0.698046
1554,0.055934,0.868642,0.585439
1555,0.306361,0.466752,0.415145
1556,-0.094393,-0.029685,0.367836
1557,-0.345346,-0.148129,0.34045
1558,-0.342878,-0.216016,0.352836
1559,-0.072436,-0.23731,0.519349
1560,0.059883,-0.254193,0.524616
1561,0.106067,-0.279908,0.476035
1562,0.166391,-0.095474,0.214736
1563,0.182361,-0.104257,0.18883
1564,0.209105,-0.090901,0.195971
1565,0.163584,-0.059031,0.127638
1566,0.231711,-0.030509,0.083505
1567,0.28025,-0.028413,0.178681
1568,0.259252,0.114637,0.225307
1569,0.263491,0.155701,0.212872
1570,0.242995,0.075204,0.195703
1571,0.228817,0.399857,0.336002
1572,0.17921,0.470072,0.355482
1573,0.305482,0.371381,0.18327
1574,0.301118,0.199105,0.290608
1575,0.261031,0.043884,0.413405
1576,-0.118125,0.168818,0.169928
1577,-0.728315,1.081322,-0.092977
1578,-1.125683,1.605068,0.222556
1579,-0.396387,0.480755,0.797035
1580,0.478597,0.321529,0.207426
1581,0.639654,0.408172,0.066954
1582,0.46088,0.218781,0.330401
1583,-0.198973,0.065448,0.681443
1584,-0.365517,0.019151,0.695047
1585,-0.602665,-0.176839,0.700713
1586,-0.65433,-0.319355,0.611884
1587,-0.700745,-0.373848,0.605896
1588,-0.603085,-0.44897,0.563569
1589,-0.538403,-0.387155,0.797984
1590,-0.504578,-0.372106,0.756893
1591,-0.440649,-0.338572,0.566146
1592,-0.365342,-0.263108,0.43508
1593,-0.295614,-0.146309,0.312925
1594,-0.0322,0.069246,-0.102594
1595,0.51149,0.680404,-0.68595
1596,1.73641,1.695257,-0.037695
1597,1.179609,0.897618,-0.314669
1598,0.460103,-0.352819,-0.410122
1599,0.006826,-0.061448,0.726199
1600,-0.399765,0.562686,1.610422
1601,-0.380816,1.071792,0.0132
1602,-0.379924,1.016342,-0.279179
1603,-0.636556,-0.296784,0.55599
1604,-0.703505,0.03598,1.300302
1605,-0.758115,0.093732,1.187349
1606,-0.702641,0.262812,0.860877
1607,0.327813,0.644104,0.434525
1608,0.158434,0.108229,0.449644
1609,-0.271638,-0.126727,0.411034
1610,-0.367902,-0.253396,0.397095
1611,-0.305451,-0.295773,0.446389
1612,-0.137591,-0.224011,0.619943
1613,-0.052535,-0.167213,0.446714
1614,-0.018577,-0.175368,0.317695
1615,0.239634,-0.173118,0.091998
1616,0.324505,-0.121905,0.099727
1617,0.357533,-0.090302,0.10825
1618,0.240606,-0.011095,0.310967
1619,0.205957,0.096964,0.272625
1620,0.176322,0.001555,0.141732
1621,0.287015,0.018235,-0.133939
1622,0.393823,0.096899,0.254322
1623,0.362963,0.061767,0.473152
1624,0.067124,0.240354,0.285972
1625,-0.019365,0.555377,0.039479
1626,0.207458,0.416277,0.141181
1627,0.338187,0.221573,0.305278
1628,0.25405,-0.026553,0.450592
1629,0.247226,-0.079832,0.322798
1630,-0.336915,0.554118,0.103223
1631,-0.972963,1.325923,0.387988
1632,-1.145986,1.415517,0.824989
1633,-0.053874,0.398792,0.409912
1634,0.453926,0.490188,0.043628
1635,0.47343,0.536283,0.028436
1636,0.175522,0.172555,0.445939
1637,-0.141796,0.041172,0.623173
1638,-0.352606,-0.097655,0.657795
1639,-0.490413,-0.261078,0.625472
1640,-0.576743,-0.438695,0.615584
1641,-0.563772,-0.428472,0.634666
1642,-0.647156,-0.41203,0.586714
1643,-0.517537,-0.368232,0.667026
1644,-0.437083,-0.361575,0.619857
1645,-0.348081,-0.371044,0.564063
1646,-0.300092,-0.141925,0.296827
1647,-0.293018,-0.172792,0.26293
1648,0.293894,0.364877,-0.37621
1649,1.854728,1.77415,0.058096
1650,1.860762,1.790285,0.083533
1651,0.676331,-0.179718,-0.494079
1652,-0.109043,-0.107065,0.761285
1653,-0.354267,0.321127,1.148039
1654,-0.478049,0.775821,1.339485
1655,-0.28098,1.354608,-0.334848
1656,-0.239211,0.198747,0.164098
1657,-0.552942,-0.276695,0.431477
1658,-0.716428,-0.200461,1.229949
1659,-0.403844,0.304597,0.791801
1660,0.193348,0.881778,0.650286
1661,0.438006,0.351467,0.416831
1662,0.198752,0.088136,0.345916
1663,-0.387231,-0.102038,0.354647
1664,-0.417769,-0.163535,0.440611
1665,-0.361799,-0.193821,0.479354
1666,-0.080853,-0.217379,0.524748
1667,0.065462,-0.14548,0.360002
1668,0.113046,-0.067305,0.257458
1669,0.220371,-0.063568,0.096979
1670,0.364443,-0.109878,0.138357
1671,0.356437,-0.120589,0.16539
1672,0.311936,-0.146088,0.295461
1673,0.349206,-0.176883,0.182138
1674,0.360338,-0.123625,0.059147
1675,0.317177,0.202917,0.155387
1676,0.295634,0.104871,0.408497
1677,0.244836,0.058588,0.384615
1678,0.081937,0.55719,0.264706
1679,0.127341,0.407259,0.368011
1680,0.192926,0.29553,0.36057
1681,0.218126,0.134641,0.270623
1682,-0.081288,0.357683,0.13625
1683,-0.305209,0.506342,0.179222
1684,-0.898155,1.307249,0.542933
1685,-0.556567,0.638968,0.762739
1686,0.185071,0.388681,0.320502
1687,0.446983,0.497841,0.110612
1688,0.246497,0.348883,0.235985
1689,-0.053042,0.093396,0.568021
1690,-0.299974,0.03276,0.624376
1691,-0.396527,-0.104546,0.642992
1692,-0.463739,-0.250181,0.580695
1693,-0.510126,-0.373446,0.642195
1694,-0.573944,-0.437748,0.587126
1695,-0.580426,-0.437378,0.591766
1696,-0.500825,-0.385019,0.699706
1697,-0.287591,-0.45145,0.570831
1698,-0.220666,-0.454782,0.492497
1699,-0.151696,-0.17584,0.268464
1700,0.172082,0.180912,-0.188342
1701,0.42969,0.53459,-0.449854
1702,1.348654,1.613569,-0.216486
1703,0.878464,0.231538,-0.604782
1704,0.842987,0.256049,-0.585608
1705,-0.211604,-0.100254,1.195712
1706,-0.414276,0.362719,1.498843
1707,-0.678904,1.07467,0.74543
1708,0.263719,0.645491,0.186242
1709,-0.502181,-0.542702,0.569848
1710,-0.673594,-0.113196,0.952128
1711,-0.61411,0.191774,0.735168
1712,-0.365934,0.499157,0.60205
1713,-0.060083,0.80558,0.567139
1714,0.284672,0.206286,0.442216
1715,-0.182493,-0.066119,0.364642
1716,-0.319847,-0.135581,0.355379
1717,-0.324,-0.266314,0.475459
1718,-0.186396,-0.250782,0.60682
1719,-0.104652,-0.240015,0.575793
1720,0.099054,-0.046896,0.315979
1721,0.228238,0.027682,0.142128
1722,0.309284,-0.026597,0.104574
1723,0.354566,-0.131234,0.158822
1724,0.294988,-0.153771,0.274068
1725,0.297076,-0.151014,0.286768
1726,0.253179,-0.154255,0.09646
1727,0.27336,-0.113866,-0.008112
1728,0.353957,0.219275,0.029178
1729,0.332383,0.130119,0.446857
1730,0.097143,0.21758,0.274847
1731,0.008658,0.371579,0.189767
1732,0.294764,0.200657,0.086219
1733,0.301873,0.089867,0.257823
1734,0.300578,-0.008799,0.314951
1735,0.169141,0.206608,0.333645
1736,-0.882847,1.534192,0.421697
1737,-1.130788,1.549659,0.897574
1738,-0.601482,0.724535,0.743881
1739,0.288382,0.640775,-0.021027
1740,0.260368,0.601193,0.014507
1741,0.180706,0.267447,0.31995
1742,-0.145806,0.064941,0.590981
1743,-0.300694,-0.000297,0.612525
1744,-0.442731,-0.12586,0.673915
1745,-0.615173,-0.367331,0.642578
1746,-0.613703,-0.401787,0.628605
1747,-0.652118,-0.480005,0.641072
1748,-0.494089,-0.466643,0.755066
1749,-0.390316,-0.498339,0.737947
1750,-0.299982,-0.483727,0.507388
1751,-0.223327,-0.309864,0.348515
1752,-0.173228,-0.181378,0.210019
1753,0.389219,0.767366,-0.600229
1754,1.655473,1.980134,-0.208505
1755,1.667566,1.729165,-0.05488
1756,0.199475,-0.677418,-0.504351
1757,-0.049419,-0.322858,0.641323
1758,-0.208667,0.166113,1.265757
1759,-1.002931,1.193008,0.147945
1760,-0.284169,1.928351,-0.049224
1761,-0.011327,-0.247822,0.893414
1762,-0.556976,-0.180181,0.755805
1763,-0.725298,-0.299391,1.19406
1764,-0.643208,-0.22079,1.018064
1765,0.119908,0.762624,0.62073
1766,0.360908,0.695499,0.487622
1767,0.220853,0.296152,0.412195
1768,-0.407262,-0.108655,0.285541
1769,-0.472343,-0.209955,0.377885
1770,-0.417421,-0.238952,0.420262
1771,-0.104208,-0.314638,0.507289
1772,-0.031987,-0.273195,0.42864
1773,0.039372,-0.151528,0.349191
1774,0.140386,0.00093,0.130102
1775,0.376804,-0.077163,0.075356
1776,0.397796,-0.081972,0.061162
1777,0.298805,-0.127203,0.307026
1778,0.435859,-0.096007,0.181823
1779,0.458817,-0.098468,0.168849
1780,0.275784,0.147918,0.277032
1781,0.36903,0.1229,0.290277
1782,0.334902,0.34506,0.267569
1783,0.122035,0.419241,0.35448
1784,0.197717,0.293311,0.313169
1785,0.171563,0.300733,0.350864
1786,0.146963,0.174484,0.18952
1787,-0.552182,0.892736,0.228789
1788,-0.884848,1.275591,0.389909
1789,-1.093854,1.082753,0.875119
1790,0.122698,0.49775,0.21192
1791,0.341571,0.548679,0.09307
1792,0.346277,0.441158,0.133799
1793,0.088862,0.069813,0.575011
1794,-0.074398,0.055549,0.646737
1795,-0.420635,-0.140267,0.66664
1796,-0.585219,-0.298799,0.644005
1797,-0.517141,-0.34393,0.667414
1798,-0.586873,-0.481824,0.608163
1799,-0.59109,-0.421099,0.653612
1800,-0.556368,-0.380506,0.698429
1801,-0.387333,-0.405686,0.659158
1802,-0.279049,-0.321363,0.518971
1803,-0.241753,-0.261632,0.439979
1804,-0.107261,0.054578,0.051019
1805,0.123921,0.287186,-0.224578
1806,0.691594,1.297102,-0.798984
1807,1.061396,0.971805,-0.356125
1808,0.310139,-0.364889,-0.427292
1809,-0.166521,-0.283144,0.521894
1810,-0.530491,0.373789,1.416624
1811,-0.934417,0.90549,0.221169
1812,-0.939178,1.262112,-0.755142
1813,-0.224638,-0.117164,0.840734
1814,-0.374802,-0.120459,0.742621
1815,-0.482667,-0.148516,0.937619
1816,-0.462932,0.121537,0.91942
1817,0.088577,0.664573,0.604512
1818,0.304169,0.850434,0.496107
1819,0.104797,0.155029,0.487077
1820,-0.435805,-0.078763,0.378883
1821,-0.417363,-0.096649,0.34975
1822,-0.377904,-0.187125,0.506062
1823,-0.246478,-0.219496,0.50729
1824,-0.183168,-0.240211,0.461285
1825,-0.028877,-0.08915,0.329366
1826,0.055782,-0.041999,0.197412
1827,0.119684,-0.061933,0.121159
1828,0.214623,-0.11707,0.132987
1829,0.348654,-0.102971,0.289183
1830,0.3943,-0.040053,0.30958
1831,0.312661,-0.013333,0.128716
1832,0.257405,0.183941,0.148348
1833,0.272218,0.087267,0.305581
1834,0.384965,0.091841,0.372242
1835,0.161696,0.475435,0.2452
1836,0.143722,0.380991,0.256379
1837,0.280575,0.321157,0.335523
1838,0.253701,0.095324,0.406564
1839,0.16486,0.133835,0.271098
1840,-0.644081,0.793676,0.076434
1841,-1.199247,1.402076,0.62824
1842,-0.774304,0.734264,0.927654
1843,0.132732,0.400712,0.30762
1844,0.432385,0.452762,0.05706
1845,0.372981,0.402328,0.124331
1846,0.103741,0.074286,0.509893
1847,-0.227199,0.001907,0.623219
1848,-0.372627,-0.027106,0.659964
1849,-0.509129,-0.240929,0.592296
1850,-0.56289,-0.318275,0.608038
1851,-0.515098,-0.341599,0.619201
1852,-0.605703,-0.333203,0.566067
1853,-0.534738,-0.347257,0.569608
1854,-0.484243,-0.374788,0.582142
1855,-0.296117,-0.326597,0.49018
1856,-0.218865,-0.250037,0.428888
1857,-0.1721,-0.149791,0.30238
1858,0.379118,0.639194,-0.499342
1859,1.266198,1.543161,-0.210079
1860,1.121634,0.876761,-0.151601
1861,0.315509,-0.452569,-0.084017
1862,0.113586,-0.337136,0.402155
1863,-0.106867,-0.030914,0.972404
1864,-0.645514,0.75483,1.056056
1865,-0.776786,2.264278,-0.938762
1866,-0.091033,1.332398,-0.280091
1867,-0.524457,-0.309678,0.583957
1868,-0.700078,-0.115644,1.206668
1869,-0.753487,-0.144949,1.216608
1870,-0.281623,0.757139,0.63589
1871,0.30177,0.292372,0.473773
1872,0.310463,0.274594,0.444122
1873,-0.372985,-0.094379,0.372095
1874,-0.34243,-0.177768,0.452637
1875,-0.321905,-0.191837,0.428635
1876,-0.100698,-0.228862,0.522055
1877,0.00862,-0.146105,0.378995
1878,0.024829,-0.155526,0.356366
1879,0.232744,-0.071101,0.179331
1880,0.325355,-0.085424,0.173793
1881,0.343991,-0.077334,0.166873
1882,0.294922,-0.047183,0.232548
1883,0.267869,-0.091749,0.259182
1884,0.274432,-0.123154,0.130065
1885,0.289218,0.070284,-0.057692
1886,0.279347,0.209277,0.215747
1887,0.242055,0.099296,0.402188
1888,-0.08245,0.441282,0.263885
1889,0.071371,0.362191,0.120929
1890,0.300493,0.298526,0.145965
1891,0.359754,0.021674,0.459468
1892,0.190483,-0.032995,0.262438
1893,0.022843,0.370025,0.238294
1894,-1.025545,1.5195,0.835272
1895,-0.803677,0.757455,1.007377
1896,-0.353916,0.506285,0.546814
1897,0.23984,0.701305,-0.07904
1898,0.099772,0.452326,0.248158
1899,-0.031671,0.135048,0.536832
1900,-0.244092,0.010841,0.60463
1901,-0.312231,-0.152604,0.62074
1902,-0.454573,-0.295992,0.638377
1903,-0.485969,-0.370939,0.692607
1904,-0.599596,-0.427496,0.637519
1905,-0.651412,-0.452168,0.646161
1906,-0.577419,-0.479173,0.698335
1907,-0.436197,-0.503304,0.615372
1908,-0.37243,-0.445781,0.485477
1909,-0.309412,-0.166919,0.245795
1910,0.1687,0.281945,-0.220551
1911,0.708856,1.226645,-0.682089
1912,1.221351,1.438596,-0.411331
1913,0.569114,0.265813,-0.513723
1914,0.276603,-0.537065,-0.425249
1915,-0.074307,-0.310595,1.119988
1916,-0.615965,1.045062,0.811389
1917,-0.627297,1.016824,0.77212
1918,0.004892,0.255634,0.406804
1919,-0.566439,-0.232322,0.711523
1920,-0.580009,-0.239483,0.695893
1921,-0.595167,-0.037691,1.026603
1922,-0.08386,0.595205,0.735051
1923,-0.047022,0.562645,0.702068
1924,0.161887,0.196689,0.446675
1925,-0.321849,-0.040437,0.387036
1926,-0.305775,-0.05806,0.357305
1927,-0.431335,-0.204484,0.499758
1928,-0.231124,-0.215613,0.567929
1929,-0.136961,-0.17985,0.517644
1930,0.048367,-0.079756,0.398362
1931,0.133253,-0.077197,0.188798
1932,0.124649,-0.124239,0.111687
1933,0.230673,-0.176231,0.242134
1934,0.380706,-0.146259,0.413676
1935,0.354255,-0.095835,0.328986
1936,0.165335,-0.050999,0.07349
1937,0.15669,0.106877,-0.067309
1938,0.224456,0.196097,0.093158
1939,0.414997,0.006783,0.521598
1940,0.309375,0.189558,0.276876
1941,0.188395,0.418273,0.195198
1942,0.148105,0.318068,0.317154
1943,0.14643,0.198957,0.507492
1944,0.170602,0.116424,0.477318
1945,-0.327964,0.475532,0.219864
1946,-0.811337,1.137217,0.206242
1947,-0.952869,1.377008,0.624751
1948,-0.341792,0.521435,0.643024
1949,0.42001,0.455401,0.286852
1950,0.547462,0.482061,0.203903
1951,0.256888,0.237757,0.336088
1952,-0.083197,0.149231,0.557731
1953,-0.360257,0.065848,0.642391
1954,-0.609305,-0.122844,0.662915
1955,-0.623968,-0.279046,0.648477
1956,-0.67019,-0.39245,0.602212
1957,-0.611205,-0.394082,0.625847
1958,-0.545714,-0.34101,0.679257
1959,-0.430175,-0.299796,0.676175
1960,-0.330195,-0.315956,0.617899
1961,-0.303833,-0.272398,0.499381
1962,-0.288488,-0.2488,0.437293
1963,0.158387,0.185594,-0.20594
1964,0.665083,0.959344,-0.641503
1965,0.702888,0.949111,-0.640435
1966,0.807347,0.238182,-0.544927
1967,0.53218,-0.53697,-0.545356
1968,0.181835,-0.443467,0.599976
1969,-0.398567,0.469397,1.448123
1970,-0.750105,1.318003,0.397236
1971,-0.469296,2.107938,-0.111326
1972,-0.105808,-0.436632,0.8461
1973,-0.749025,-0.145326,0.720485
1974,-0.833281,-0.16091,1.308217
1975,-0.728726,0.303671,0.841908
1976,0.080166,0.995778,0.575371
1977,0.247417,0.650593,0.567797
1978,-0.162618,0.156773,0.427034
1979,-0.393842,-0.046623,0.395229
1980,-0.289291,-0.094793,0.46659
1981,-0.164136,-0.162558,0.579054
1982,-0.091551,-0.18204,0.502959
1983,-0.093976,-0.160606,0.410626
1984,0.192773,-0.098509,0.213083
1985,0.223978,-0.158607,0.08665
1986,0.254363,-0.144125,0.207255
1987,0.235078,-0.109153,0.359026
1988,0.146122,-0.113418,0.301921
1989,0.043101,-0.090666,0.109491
1990,0.205716,-0.018259,0.002949
1991,0.266133,0.066361,0.02853
1992,0.308113,0.143863,0.330718
1993,0.204615,-0.01118,0.600723
1994,0.113048,-0.021036,0.500837
1995,-0.183074,0.402187,0.070688
1996,0.085219,0.401198,0.230536
1997,0.302717,0.354707,0.360741
1998,0.257316,0.05783,0.550182
1999,0.120936,0.066371,0.218632
2000,-0.2485,0.372433,0.179792
2001,-0.587004,0.988855,0.171853
2002,-0.756377,1.31953,0.57448
2003,-0.353146,0.458342,0.69886
2004,0.249806,0.236133,0.271372
2005,0.428052,0.380838,0.144637
2006,0.275461,0.31737,0.291511
2007,0.0991,0.224982,0.446188
2008,-0.303157,0.072005,0.666239
2009,-0.493053,-0.074533,0.617461
2010,-0.568702,-0.121614,0.622462
2011,-0.640376,-0.237714,0.589175
2012,-0.653037,-0.257521,0.599831
2013,-0.552732,-0.221044,0.695841
2014,-0.448461,-0.232361,0.716992
2015,-0.357115,-0.268517,0.632853
2016,-0.342655,-0.203261,0.5389
2017,-0.314712,-0.067449,0.425973
2018,-0.203812,-0.025037,0.216166
2019,0.203142,0.168872,-0.274082
2020,0.819872,0.837248,-0.614217
2021,1.741532,1.37232,0.021805
2022,0.677716,0.521484,-0.417556
2023,0.246601,0.006308,-0.089906
2024,-0.145585,0.485253,0.80186
2025,-0.359758,1.045788,1.029547
2026,-0.477445,0.900222,0.155501
2027,-0.828773,-0.104685,0.402092
2028,-0.74614,0.110729,0.746805
2029,-0.557153,0.097972,1.192446
2030,-0.324679,0.615439,0.660583
2031,-0.058251,0.674377,0.651202
2032,0.340906,0.25399,0.576263
2033,-0.183458,-0.004502,0.48045
2034,-0.309069,-0.05191,0.450058
2035,-0.313684,-0.108351,0.4671
2036,-0.151781,-0.135088,0.581145
2037,-0.097349,-0.140737,0.573199
2038,-0.039084,-0.129057,0.379432
2039,0.014768,-0.096773,0.279342
2040,0.117739,-0.084576,0.145605
2041,0.181508,-0.051521,0.134727
2042,0.237259,-0.067796,0.190475
2043,0.289064,-0.082874,0.408821
2044,0.109632,-0.010885,0.388198
2045,0.025057,0.007569,0.041301
2046,0.074955,0.055207,-0.090149
2047,0.228871,0.159088,0.360637
2048,0.357371,-0.032088,0.654285
2049,0.367502,-0.044427,0.555007
2050,0.074149,0.491722,0.166897
2051,0.240727,0.284715,0.223123
2052,0.356474,0.284006,0.307681
2053,0.315079,-0.041937,0.488648
2054,0.153636,0.038292,0.232949
2055,-0.088247,0.294133,0.277966
2056,-0.844987,1.454264,0.364829
2057,-0.863603,1.11997,0.796299
2058,-0.620777,0.63447,0.804237
2059,0.281484,0.416291,0.155915
2060,0.305209,0.405864,0.116292
2061,0.085403,0.20225,0.38289
2062,-0.113191,0.125917,0.616551
2063,-0.332333,0.035651,0.693225
2064,-0.578677,-0.172362,0.607084
2065,-0.653537,-0.298131,0.59248
2066,-0.567786,-0.322553,0.743153
2067,-0.477571,-0.334914,0.687278
2068,-0.424448,-0.240519,0.716778
2069,-0.347221,-0.287578,0.688639
2070,-0.299918,-0.305357,0.599224
2071,-0.250963,-0.216443,0.449581
2072,-0.12332,-0.133906,0.109964
2073,0.055237,-0.007667,-0.133339
2074,0.628202,0.703849,-0.514045
2075,1.560634,1.378327,-0.064284
2076,1.035552,0.754183,-0.35123
2077,0.425825,-0.476496,-0.416796
2078,-0.131149,-0.162098,1.444782
2079,-0.357226,0.19547,1.616137
2080,-0.883918,0.901613,0.549243
2081,0.308097,1.402048,0.207514
2082,-0.219198,-0.509592,0.756899
2083,-0.8473,-0.130816,0.710017
2084,-0.911001,-0.167944,1.31648
2085,-0.442028,0.520534,0.753647
2086,0.068834,1.082231,0.611812
2087,0.274129,0.89443,0.587279
2088,0.025429,0.048582,0.481938
2089,-0.438478,-0.173833,0.34329
2090,-0.347067,-0.217953,0.529056
2091,-0.247929,-0.200267,0.593773
2092,-0.120034,-0.155986,0.4697
2093,0.047049,-0.132582,0.288361
2094,0.185336,-0.186238,0.158638
2095,0.331959,-0.188779,0.225551
2096,0.333086,-0.118519,0.273952
2097,0.305368,-0.062254,0.277064
2098,0.130316,-0.078711,0.169966
2099,0.208485,-0.116571,0.074286
2100,0.293597,-0.065201,0.059105
2101,0.457763,0.141324,0.310101
2102,0.270673,-0.009706,0.449471
2103,0.212274,0.026546,0.345915
2104,-0.09525,0.619074,0.250014
2105,0.194436,0.339625,0.297857
2106,0.199062,0.295504,0.392109
2107,0.040604,0.193055,0.22783
2108,-0.402672,0.634676,0.146807
2109,-0.446585,0.662078,0.200669
2110,-0.891238,0.994434,0.921149
2111,-0.086291,0.403937,0.475348
2112,-0.131798,0.426732,0.493437
2113,0.492679,0.563779,0.104158
2114,0.177798,0.220619,0.515827
2115,-0.026844,0.203037,0.617038
2116,-0.340367,0.136052,0.662249
2117,-0.561882,-0.13023,0.625865
2118,-0.645753,-0.198624,0.639634
2119,-0.618905,-0.31633,0.640085
2120,-0.639206,-0.38506,0.658194
2121,-0.608146,-0.381965,0.732511
2122,-0.457217,-0.418113,0.761684
2123,-0.31989,-0.380635,0.593193
2124,-0.306908,-0.360577,0.507834
2125,-0.295648,-0.233007,0.372512
2126,0.215705,0.351083,-0.158396
2127,0.431555,0.816306,-0.543596
2128,1.58605,1.541943,-0.074586
2129,0.621972,-0.104717,-0.519428
2130,0.367146,-0.47067,-0.436838
2131,-0.132979,-0.004582,1.394912
2132,-0.332939,0.340804,1.433917
2133,-0.780636,1.888516,-0.422882
2134,0.217443,1.057524,0.360179
2135,0.146816,-0.215248,0.683191
2136,-0.794839,-0.249152,0.795725
2137,-0.788678,-0.267098,1.21365
2138,-0.382405,0.416197,0.746469
2139,0.213934,1.065584,0.586121
2140,0.404329,0.341868,0.514549
2141,-0.191068,0.009513,0.324315
2142,-0.374349,-0.068757,0.365805
2143,-0.318431,-0.133624,0.506708
2144,-0.223568,-0.221507,0.608897
2145,-0.151613,-0.236761,0.515686
2146,-0.079738,-0.12835,0.386264
2147,0.140501,0.008303,0.263586
2148,0.150624,-0.043948,0.148892
2149,0.288774,-0.137643,0.188237
2150,0.268915,-0.12296,0.353775
2151,0.269969,-0.110612,0.326419
2152,0.263523,-0.114898,0.180011
2153,0.253626,0.137279,0.024269
2154,0.299979,0.192044,0.186415
2155,0.263051,0.011367,0.466603
2156,0.01534,0.386032,0.258044
2157,-0.100526,0.554114,0.210787
2158,0.233734,0.36864,0.284466
2159,0.283033,0.073685,0.525642
2160,0.306042,-0.013566,0.395732
2161,-0.011928,0.275903,0.259252
2162,-0.783271,1.273022,0.239775
2163,-1.003825,1.481676,0.595972
2164,-0.701921,0.845889,0.918062
2165,0.247159,0.507519,0.08549
2166,0.310158,0.559924,0.039745
2167,0.210554,0.398719,0.255747
2168,-0.088796,0.085419,0.6765
2169,-0.240517,0.089255,0.691912
2170,-0.544524,-0.216193,0.619549
2171,-0.575961,-0.260974,0.654319
2172,-0.614454,-0.311777,0.663585
2173,-0.604707,-0.353945,0.685701
2174,-0.580317,-0.318798,0.750972
2175,-0.465966,-0.317828,0.79172
2176,-0.277736,-0.332408,0.553188
2177,-0.258854,-0.302878,0.442855
2178,-0.222419,-0.265672,0.319924
2179,0.155461,0.217912,-0.10539
2180,0.490192,1.170118,-0.569009
2181,1.674011,1.789008,-0.012069
2182,0.879148,0.335479,-0.560891
2183,0.562681,-0.258277,-0.642537
2184,-0.184264,-0.108266,0.98101
2185,-0.671861,0.765889,0.942517
2186,-0.809258,1.062155,0.087846
2187,0.144523,0.50289,0.475396
2188,-0.402454,-0.189666,0.64985
2189,-0.553599,-0.065226,0.972575
2190,-0.598478,0.0679,1.023934
2191,-0.220659,0.61695,0.743907
2192,0.123683,0.835414,0.56784
2193,0.072463,0.182085,0.47191
2194,-0.338477,-0.020612,0.43086
2195,-0.479325,-0.096621,0.435766
2196,-0.420609,-0.160714,0.492847
2197,-0.238296,-0.166221,0.576369
2198,-0.06377,-0.18159,0.544482
2199,-0.026844,-0.155546,0.436464
2200,0.061844,-0.091845,0.289238
2201,0.048554,-0.092886,0.213607
2202,0.199496,-0.053844,0.208319
2203,0.159284,-0.058869,0.219674
2204,0.195987,-0.014063,0.238433
2205,0.203275,-0.027109,0.235545
2206,0.220624,0.056131,0.169081
2207,0.236372,0.117284,0.301332
2208,0.233106,0.087149,0.364174
2209,0.138326,0.551516,0.397068
2210,0.005916,0.540141,0.350125
2211,0.103801,0.484113,0.388146
2212,0.239837,0.378501,0.413661
2213,0.006416,0.363196,0.394042
2214,-0.381287,0.177246,-0.098927
2215,-0.566014,0.52098,0.052297
2216,-0.740317,1.159907,0.581132
2217,-0.682335,0.739109,0.789127
2218,-0.14149,0.328151,0.517482
2219,0.236851,0.445911,0.16029
2220,0.088626,0.409033,0.229481
2221,-0.160014,0.215119,0.522119
2222,-0.383408,0.036433,0.642339
2223,-0.430937,-0.046329,0.663935
2224,-0.488915,-0.292754,0.634986
2225,-0.518925,-0.348414,0.653922
2226,-0.615662,-0.395068,0.545955
2227,-0.556449,-0.331602,0.652254
2228,-0.494787,-0.338152,0.727926
2229,-0.373002,-0.321322,0.729828
2230,-0.170193,-0.302826,0.452571
2231,-0.104049,-0.303622,0.337645
2232,0.06175,0.09486,-0.095153
2233,0.502835,0.833483,-0.502397
2234,0.823807,1.505445,-0.408519
2235,0.717845,0.746837,-0.516283
2236,0.144548,-0.516511,-0.286851
2237,-0.167714,0.061775,0.749766
2238,-0.407561,0.715334,1.1895
2239,-0.829883,1.130239,0.123625
2240,-0.377261,1.099634,0.173638
2241,-0.118321,-0.292003,0.812437
2242,-0.495357,0.172756,1.144421
2243,-0.500084,0.230586,1.221623
2244,-0.568303,0.301401,0.883186
2245,-0.098801,0.766704,0.576699
2246,0.084088,0.220733,0.620578
2247,-0.09633,0.062372,0.54843
2248,-0.424074,-0.079678,0.498577
2249,-0.485063,-0.183757,0.479205
2250,-0.280554,-0.235326,0.535653
2251,-0.092096,-0.220642,0.53553
2252,-0.039271,-0.158774,0.476486
2253,-0.032757,-0.123248,0.422379
2254,0.032519,-0.009763,0.271595
2255,0.073561,-0.026808,0.202293
2256,0.093973,-0.035153,0.185001
2257,0.140004,0.001989,0.192724
2258,0.146745,0.026648,0.155922
2259,0.165317,0.020208,0.135268
2260,0.243404,0.22519,0.103777
2261,0.314144,0.125212,0.319412
2262,0.238906,0.250257,0.288442
2263,0.087204,0.513168,0.224141
2264,0.277946,0.331654,0.380448
2265,0.163824,0.235659,0.436668
2266,0.031465,-0.100064,0.406511
2267,-0.251555,0.540218,0.092517
2268,-0.704734,1.343531,0.268902
2269,-0.856344,1.273738,0.770362
2270,-0.733347,0.758731,0.932658
2271,-0.02313,0.477293,0.43115
2272,0.323694,0.49226,0.103609
2273,0.188188,0.403013,0.199181
2274,-0.176634,0.136868,0.596614
2275,-0.412474,0.083308,0.675261
2276,-0.612978,-0.069566,0.66664
2277,-0.612165,-0.133065,0.670346
2278,-0.671726,-0.295246,0.633188
2279,-0.637003,-0.329834,0.58351
2280,-0.633998,-0.322245,0.64761
2281,-0.479281,-0.320945,0.656039
2282,-0.33625,-0.306914,0.58095
2283,-0.292892,-0.282444,0.525515
2284,-0.183927,-0.054106,0.309006
2285,0.101117,0.286646,-0.185823
2286,0.340473,0.643083,-0.452181
2287,1.413158,1.502861,0.020159
2288,0.734762,0.165886,-0.462947
2289,0.459021,-0.34706,-0.415534
2290,-0.063267,-0.249915,1.058182
2291,-0.521875,0.539478,1.539398
2292,-0.774317,0.860065,1.05851
2293,-0.613896,2.116053,-0.357653
2294,-0.03774,-0.267118,0.654603
2295,-0.645606,-0.21424,0.722199
2296,-0.62649,-0.245211,1.386049
2297,-0.38965,0.199763,0.99102
2298,0.255677,0.966267,0.693801
2299,0.698104,0.73635,0.588819
2300,-0.093234,0.136353,0.368066
2301,-0.468282,0.033035,0.388248
2302,-0.581033,-0.099057,0.479322
2303,-0.500113,-0.235362,0.568675
2304,-0.342912,-0.23941,0.533517
2305,-0.112203,-0.099539,0.457387
2306,0.061897,0.017573,0.35933
2307,0.028673,-0.044644,0.263306
2308,0.119662,-0.105304,0.193637
2309,0.197649,-0.039592,0.291924
2310,0.280118,-0.050312,0.277933
2311,0.226166,-0.113466,0.164632
2312,0.230686,0.171257,0.141336
2313,0.239338,0.118547,0.329295
2314,0.286241,0.296235,0.31871
2315,0.196091,0.478896,0.303967
2316,0.150698,0.561169,0.310213
2317,0.180373,0.419393,0.386452
2318,0.119402,0.19379,0.387806
2319,0.089734,0.013104,0.388165
2320,-0.254179,0.35053,0.204055
2321,-0.621386,1.000204,0.241861
2322,-0.858561,1.40281,0.421002
2323,-0.624278,0.625761,0.775453
2324,0.143457,0.502244,0.369346
2325,0.325148,0.48216,0.259442
2326,0.196678,0.264073,0.303854
2327,-0.047196,0.187964,0.55047
2328,-0.182972,0.182423,0.628726
2329,-0.511464,-0.055812,0.651797
2330,-0.596942,-0.199182,0.638414
2331,-0.709341,-0.300671,0.568041
2332,-0.684549,-0.320286,0.57782
2333,-0.591995,-0.275003,0.751132
2334,-0.379963,-0.257579,0.757773
2335,-0.302356,-0.266393,0.702774
2336,-0.313273,-0.249969,0.575485
2337,-0.304576,-0.193433,0.37478
2338,-0.200984,-0.017149,0.038517
2339,0.312153,0.445838,-0.372885
2340,1.124378,1.425611,-0.091961
2341,1.26519,1.318703,-0.174128
2342,0.578661,0.056752,-0.546753
2343,0.031519,0.062022,0.355163
2344,-0.418725,0.592187,1.163442
2345,-0.501951,1.341559,-0.083861
2346,-0.458516,1.135071,-0.502734
2347,-0.586597,-0.282178,0.174859
2348,-0.609172,-0.00108,1.130208
2349,-0.655262,-0.079603,1.228681
2350,-0.623788,0.446781,0.729611
2351,0.211546,0.843048,0.651848
2352,0.29995,0.500387,0.482589
2353,-0.117274,0.041537,0.356893
2354,-0.490468,-0.141268,0.523799
2355,-0.454616,-0.190498,0.52292
2356,-0.346237,-0.212683,0.613905
2357,-0.110757,-0.12175,0.609761
2358,-0.051718,-0.027914,0.412251
2359,0.028688,-0.003087,0.187805
2360,0.130341,-0.006258,0.158808
2361,0.168901,-0.018917,0.155059
2362,0.223276,-0.030745,0.312016
2363,0.229075,-0.05288,0.345668
2364,0.136062,-0.109353,0.3167
2365,0.162113,-0.017371,0.020769
2366,0.206035,0.18894,0.122426
2367,0.253157,0.172441,0.321021
2368,0.04441,0.132263,0.472095
2369,-0.15712,0.541038,0.290858
2370,-0.099774,0.559185,0.271237
2371,0.294971,0.257145,0.310453
2372,0.208277,0.092667,0.404639
2373,0.182594,-0.056361,0.336024
2374,-0.174291,0.086817,0.265725
2375,-0.494005,0.987524,0.171705
2376,-0.79362,1.472833,0.407373
2377,-0.625747,0.596437,0.845011
2378,0.065343,0.49641,0.245124
2379,0.183953,0.580254,0.084205
2380,0.142551,0.30943,0.274218
2381,-0.017346,0.143266,0.545497
2382,-0.121884,0.133888,0.621803
2383,-0.428869,-0.063141,0.692455
2384,-0.522893,-0.132302,0.685227
2385,-0.590881,-0.203752,0.696344
2386,-0.649766,-0.278749,0.654455
2387,-0.664199,-0.343949,0.663187
2388,-0.600835,-0.36991,0.673708
2389,-0.453654,-0.393797,0.609986
2390,-0.330499,-0.309164,0.422615
2391,-0.271553,-0.20272,0.328407
2392,-0.055463,0.147883,0.051103
2393,0.690421,1.421086,-0.424578
2394,1.390319,1.883959,-0.123893
2395,0.995098,0.919528,-0.389983
2396,0.132721,-0.373744,-0.107896
2397,-0.181292,-0.178772,0.466474
2398,-0.464841,0.6755,1.180264
2399,-0.567695,1.230517,0.049248
2400,-0.41826,1.237693,-0.277839
2401,-0.649356,-0.044382,0.298305
2402,-0.628661,0.024419,0.619433
2403,-0.676494,0.033285,1.120579
2404,-0.491015,0.718521,0.723415
2405,0.09588,0.743456,0.683766
2406,0.210269,0.271662,0.457472
2407,-0.229942,0.038098,0.478516
2408,-0.367913,-0.032622,0.503672
2409,-0.432409,-0.132614,0.526137
2410,-0.292034,-0.148872,0.521778
2411,-0.194026,-0.138365,0.545823
2412,-0.027174,-0.074137,0.475344
2413,0.03712,-0.020059,0.382947
2414,0.112095,-0.060933,0.238847
2415,0.123277,-0.091416,0.217663
2416,0.012573,-0.021025,0.183729
2417,0.008173,-0.017081,0.226247
2418,0.04268,-0.017863,0.278095
2419,0.122418,0.032554,0.265765
2420,0.1825,0.152749,0.137783
2421,0.174754,0.222197,0.30879
2422,0.16298,0.156975,0.422252
2423,0.054285,0.480405,0.333849
2424,0.013033,0.53695,0.292599
2425,0.312041,0.304924,0.324736
2426,0.279026,0.161464,0.468446
2427,0.1656,0.040848,0.37388
2428,-0.185483,0.340874,0.282311
2429,-0.630689,0.724214,0.217164
2430,-1.088458,1.317893,0.54138
2431,-0.811708,0.704942,0.922294
2432,-0.147808,0.451538,0.42513
2433,0.20632,0.477218,0.137843
2434,0.119684,0.330904,0.243712
2435,-0.035068,0.127876,0.569222
2436,-0.143758,0.132367,0.637748
2437,-0.322693,0.028962,0.700351
2438,-0.549703,-0.137051,0.687701
2439,-0.577926,-0.203835,0.69613
2440,-0.656829,-0.25922,0.659806
2441,-0.669821,-0.233174,0.643474
2442,-0.58398,-0.240247,0.685774
2443,-0.442338,-0.281894,0.709688
2444,-0.29698,-0.208589,0.520013
2445,-0.283897,-0.195136,0.452671
2446,-0.132831,0.105273,0.12633
2447,0.054648,0.265302,-0.11224
2448,0.595187,0.988583,-0.41764
2449,1.188816,1.47976,-0.145306
2450,0.743031,0.740432,-0.378706
2451,0.333651,-0.344406,-0.317857
2452,-0.204105,0.172419,0.973762
2453,-0.358793,0.359334,1.20212
2454,-0.755018,0.655963,1.146004
2455,-0.413436,1.533573,-0.320167
2456,-0.133159,0.001012,0.541458
2457,-0.469427,-0.11782,0.622196
2458,-0.761371,-0.170992,1.195694
2459,-0.607129,0.222986,0.808108
2460,-0.339859,0.468518,0.661774
2461,0.270876,0.564427,0.48794
2462,-0.047705,0.057833,0.439242
2463,-0.233854,-0.078809,0.427793
2464,-0.44886,-0.187946,0.498622
2465,-0.314153,-0.123005,0.594102
2466,-0.094304,-0.052186,0.62846
2467,0.014889,-0.039256,0.484296
2468,0.064723,-0.033711,0.306507
2469,0.11715,0.000581,0.161148
2470,0.037976,0.072148,0.179959
2471,0.052972,0.065914,0.256054
2472,0.046834,-0.051888,0.32376
2473,0.131304,-0.071122,0.268375
2474,0.19335,5.20E-05,0.18497
2475,0.251878,0.178116,0.19541
2476,0.176795,0.128751,0.366302
2477,0.011516,0.337614,0.309321
2478,-0.10655,0.494029,0.271825
2479,-0.029842,0.379025,0.269708
2480,0.342672,0.199501,0.34122
2481,0.222758,0.040603,0.481933
2482,0.087554,-0.168275,0.286859
2483,-0.325574,0.570897,0.228511
2484,-0.637012,0.960373,0.252884
2485,-1.100677,1.494005,0.666572
2486,-0.302001,0.446475,0.587184
2487,0.015782,0.448638,0.34611
2488,0.316577,0.51,0.115041
2489,0.060793,0.243853,0.366026
2490,-0.078304,0.208273,0.511211
2491,-0.384736,0.089979,0.677405
2492,-0.438382,0.038579,0.71197
2493,-0.638517,-0.066086,0.70127
2494,-0.680467,-0.222523,0.658195
2495,-0.715138,-0.31434,0.58598
2496,-0.647223,-0.32297,0.607969
2497,-0.445338,-0.289059,0.720324
2498,-0.298934,-0.250901,0.604482
2499,-0.255437,-0.244883,0.518923
2500,-0.178879,-0.065401,0.241093
2501,0.045934,0.13704,-0.101722
2502,0.30391,0.404124,-0.280798
2503,1.392375,1.809151,-0.010356
2504,0.778319,0.73285,-0.342531
2505,0.514102,0.055089,-0.436075
2506,-0.119233,0.053774,0.686722
2507,-0.393297,0.54304,1.296316
2508,-0.540458,0.579828,1.355916
2509,-0.680615,1.457554,-0.492429
2510,-0.165305,0.159134,0.430438
2511,-0.416254,-0.079236,0.665578
2512,-0.582445,-0.064021,1.180332
2513,-0.585211,0.232865,0.919207
2514,-0.141458,0.719135,0.69918
2515,0.251892,0.709098,0.527595
2516,-0.162372,0.048162,0.522069
2517,-0.330761,-0.028606,0.52754
2518,-0.473561,-0.06056,0.524085
2519,-0.418338,-0.141983,0.522049
2520,-0.230251,-0.166297,0.566018
2521,-0.078218,-0.086761,0.494074
2522,0.00537,-0.005946,0.390216
2523,0.058839,-0.01823,0.300765
2524,0.073611,-0.062079,0.240761
2525,0.089912,0.027051,0.205086
2526,0.023544,0.01632,0.253635
2527,0.01276,-0.001316,0.349024
2528,-0.028489,0.0538,0.250862
2529,-0.006612,0.046543,0.232384
2530,0.15646,0.263227,0.110463
2531,0.299643,0.048196,0.573855
2532,0.267136,0.109933,0.523495
2533,0.009383,0.46684,0.206906
2534,0.280896,0.345072,0.287786
2535,0.332757,0.294019,0.388925
2536,0.050261,-0.02586,0.208831
2537,-0.107256,0.137553,0.276906
2538,-0.260638,0.338792,0.357911
2539,-0.767179,1.292172,0.325256
2540,-0.839869,1.327121,0.492483
2541,-0.553767,0.514094,0.654807
2542,0.113695,0.532099,0.309453
2543,0.210903,0.43475,0.240686
2544,0.115941,0.354254,0.295916
2545,-0.168283,0.219166,0.529769
2546,-0.331242,0.136438,0.624106
2547,-0.398326,0.073168,0.679286
2548,-0.531095,-0.048162,0.669003
2549,-0.558342,-0.138645,0.693925
2550,-0.54264,-0.197612,0.680434
2551,-0.506052,-0.21703,0.674668
2552,-0.439787,-0.251165,0.653171
2553,-0.383086,-0.292567,0.613585
2554,-0.388767,-0.306564,0.578496
2555,-0.313891,-0.254832,0.453542
2556,-0.126532,-0.064708,0.221071
2557,0.26802,0.335193,-0.304089
2558,0.945879,1.230558,-0.265045
2559,1.640168,1.962035,-0.008133
2560,0.643304,0.384148,-0.579965
2561,0.367232,-0.691535,-0.01528
2562,0.023522,-0.077944,1.125288
2563,-0.636162,0.84925,1.692941
2564,-1.595015,1.498544,-0.425499
2565,-0.243628,0.85045,0.146657
2566,-0.142246,-0.171627,0.844751
2567,-0.732056,-0.090775,1.284078
2568,-0.738647,-0.127444,1.360102
2569,-0.426698,0.408086,0.843579
2570,0.228465,0.794845,0.483511
2571,0.306889,0.371821,0.479411
2572,-0.234119,0.005811,0.473984
2573,-0.456549,-0.104846,0.515998
2574,-0.414985,-0.164265,0.585789
2575,-0.25994,-0.194499,0.680952
2576,0.03191,-0.078041,0.558658
2577,0.08999,-0.04478,0.475138
2578,0.196716,-0.014667,0.298161
2579,0.029613,-0.031857,0.220683
2580,0.075161,0.065944,0.368273
2581,0.043249,0.06502,0.397243
2582,0.011252,0.050787,0.300931
2583,-0.009646,0.048383,0.189023
2584,0.045688,0.10718,0.054007
2585,0.191863,0.198979,0.203131
2586,0.320378,0.164551,0.348869
2587,0.304933,0.016432,0.571364
2588,0.295521,0.325209,0.277249
2589,0.219317,0.519382,0.168223
2590,0.249604,0.286349,0.414033
2591,0.190992,0.148203,0.440111
2592,0.115357,0.110763,0.532519
2593,-0.227543,0.285825,0.250247
2594,-0.580159,0.793301,0.209667
2595,-0.830205,1.208101,0.329502
2596,-0.789682,0.615126,0.79255
2597,-0.050173,0.451383,0.431926
2598,0.183363,0.506006,0.274814
2599,0.162443,0.43683,0.307937
2600,-0.079269,0.253311,0.607186
2601,-0.319224,0.17578,0.730336
2602,-0.505882,0.035039,0.714409
2603,-0.528373,-0.052737,0.693927
2604,-0.602208,-0.178991,0.680879
2605,-0.659859,-0.297575,0.578572
2606,-0.49291,-0.263933,0.639395
2607,-0.378693,-0.209795,0.749856
2608,-0.325324,-0.201284,0.739635
2609,-0.270931,-0.218596,0.525902
2610,-0.21982,-0.19203,0.427922
2611,-0.086785,-0.042399,0.148267
2612,0.55141,0.715535,-0.478496
2613,0.819094,1.239478,-0.542796
2614,1.488151,1.821265,-0.142198
2615,0.543664,0.201933,-0.377587
2616,0.410948,-0.630673,0.095375
2617,0.095358,-0.258728,0.953509
2618,-1.031011,0.911393,0.955117
2619,-1.375216,1.213589,0.084747
2620,-0.505602,2.013684,-0.085825
2621,-0.280667,-0.243052,0.835394
2622,-0.601797,-0.045763,0.781969
2623,-0.695229,-0.074423,1.269994
2624,-0.353029,0.547432,0.669416
2625,-0.153598,0.81091,0.546645
2626,0.216804,0.653124,0.619962
2627,-0.230994,0.041469,0.542958
2628,-0.371451,-0.01374,0.497976
2629,-0.442368,-0.111355,0.57137
2630,-0.194172,-0.144541,0.618828
2631,-0.106876,-0.109685,0.552377
2632,0.036136,-0.013509,0.49928
2633,0.083782,-0.039722,0.300354
2634,0.054879,-0.032171,0.199447
2635,0.12172,0.040512,0.39104
2636,0.135407,0.025811,0.447392
2637,0.1126,-0.00249,0.462665
2638,-0.039505,-0.025426,0.285864
2639,-0.041525,0.054996,0.094891
2640,0.023935,0.122834,0.060731
2641,0.278774,0.18479,0.4165
2642,0.307864,-0.011986,0.571282
2643,0.299311,0.010985,0.488418
2644,0.099159,0.448729,0.205176
2645,0.241366,0.330333,0.254401
2646,0.35134,0.326927,0.311831
2647,0.28645,-0.047086,0.528882
2648,0.239476,-0.110141,0.33752
2649,0.072219,0.062175,0.346117
2650,-0.552775,1.145954,0.345786
2651,-0.956201,1.354437,0.635847
2652,-0.882397,0.931995,0.773842
2653,-0.001336,0.515962,0.422947
2654,0.271529,0.469625,0.269999
2655,0.141916,0.286192,0.384621
2656,-0.092381,0.181708,0.583365
2657,-0.312482,0.153519,0.685872
2658,-0.450957,0.057013,0.638542
2659,-0.638025,-0.046536,0.628799
2660,-0.579363,-0.145641,0.617519
2661,-0.510994,-0.173148,0.633396
2662,-0.400772,-0.145584,0.704015
2663,-0.361898,-0.136863,0.704142
2664,-0.34433,-0.160258,0.692015
2665,-0.351297,-0.1809,0.639583
2666,-0.290869,-0.237907,0.521406
2667,-0.207086,-0.15405,0.320709
2668,0.178368,0.148524,-0.131705
2669,0.811515,0.959754,-0.564673
2670,1.762741,1.759743,0.093824
2671,0.75214,0.53202,-0.338716
2672,0.406802,-0.384665,0.431728
2673,0.059505,-0.136434,0.847846
2674,-0.588588,0.413695,1.33997
2675,-1.129795,1.55517,-0.803662
2676,-0.799981,1.903649,-0.818417
2677,0.404097,-0.120569,0.898815
2678,-0.595779,-0.039768,1.025999
2679,-0.629944,-0.113824,1.253101
2680,-0.341395,0.386542,0.722793
2681,-0.10259,0.703641,0.625762
2682,0.301717,0.795059,0.508534
2683,-0.152522,0.069066,0.490487
2684,-0.268755,0.000874,0.476857
2685,-0.356494,-0.066673,0.546159
2686,-0.20666,-0.097459,0.705318
2687,-0.167295,-0.092809,0.634437
2688,-0.128395,-0.072771,0.532558
2689,0.454713,0.079905,0.968002
2690,-0.139166,-0.03234,0.202322
2691,0.014763,-0.061455,0.150281
2692,0.244492,0.062106,0.33351
2693,0.150309,0.068226,0.35467
2694,0.087634,-0.084114,0.352761
2695,0.115008,0.020607,0.161522
2696,0.338602,0.1222,0.164231
2697,0.283122,0.156726,0.241174
2698,0.252172,0.061031,0.529381
2699,0.107056,-0.03124,0.481053
2700,0.131022,0.343881,0.232497
2701,0.259977,0.436632,0.371689
2702,0.143818,0.192023,0.430473
2703,0.072215,0.133855,0.450936
2704,-0.074199,0.095698,0.289765
2705,-0.475594,1.050768,0.33693
2706,-0.655736,1.417988,0.404679
2707,-0.734785,1.00549,0.597089
2708,-0.040748,0.483651,0.477695
2709,0.157703,0.537286,0.403586
2710,0.238359,0.478658,0.309624
2711,-0.020971,0.164623,0.481607
2712,-0.122197,0.165773,0.578151
2713,-0.36709,0.06398,0.666445
2714,-0.555769,-0.075727,0.637341
2715,-0.529366,-0.112944,0.61763
2716,-0.511247,-0.175193,0.626056
2717,-0.509637,-0.223434,0.691729
2718,-0.489076,-0.221698,0.703757
2719,-0.489097,-0.225559,0.680609
2720,-0.432633,-0.221967,0.66573
2721,-0.38773,-0.210714,0.622412
2722,-0.304686,-0.126858,0.506876
2723,0.145829,0.108984,0.069816
2724,0.367979,0.273906,-0.180532
2725,1.259791,1.407112,0.05329
2726,1.124426,1.158572,-0.076335
2727,0.570992,-0.100429,-0.312671
2728,0.247757,-0.147024,0.506099
2729,0.040714,0.100019,0.837238
2730,-0.753343,1.036337,0.451316
2731,-0.996125,1.779375,-0.204088
2732,-0.029007,-0.327967,0.815694
2733,-0.678143,0.029413,0.85192
2734,-0.782854,0.197092,1.127827
2735,-0.550835,0.265079,0.955016
2736,-0.181566,0.762426,0.704179
2737,0.199522,0.463328,0.636621
2738,-0.106014,0.21424,0.627061
2739,-0.280111,0.071712,0.476637
2740,-0.40059,-0.085533,0.441421
2741,-0.335004,-0.0902,0.583757
2742,-0.167051,-0.083156,0.625326
2743,0.020894,-0.147554,0.536029
2744,0.139251,-0.058141,0.339297
2745,0.173879,-0.021855,0.275667
2746,0.082238,0.001171,0.236915
2747,0.148194,0.086013,0.371856
2748,0.182691,0.103893,0.419421
2749,0.053541,0.033489,0.357925
2750,0.031193,0.017267,0.17761
2751,0.051804,0.036814,0.129836
2752,0.22421,0.164379,0.233729
2753,0.226283,0.085549,0.516639
2754,0.208733,-0.000283,0.613434
2755,0.005752,0.391087,0.394497
2756,-0.096025,0.517088,0.201799
2757,0.203444,0.335148,0.248137
2758,0.397517,0.185664,0.424371
2759,0.169493,-0.070153,0.480495
2760,0.016472,-0.284844,0.296705
2761,-0.219882,0.202267,0.319293
2762,-0.752016,1.429731,0.49238
2763,-0.862931,1.428511,0.648457
2764,-0.623693,0.642803,0.798637
2765,-0.00269,0.438845,0.440064
2766,0.25114,0.470004,0.177669
2767,0.12748,0.232015,0.361618
2768,0.009165,0.189713,0.512808
2769,-0.335336,0.052873,0.739739
2770,-0.525854,-0.008691,0.643786
2771,-0.587509,-0.023098,0.613466
2772,-0.486235,-0.081396,0.674595
2773,-0.436018,-0.056327,0.691217
2774,-0.410647,-0.022623,0.712845
2775,-0.421978,-0.095009,0.667114
2776,-0.37683,-0.141523,0.606187
2777,-0.362804,-0.129806,0.604448
2778,-0.349547,-0.171913,0.529621
2779,-0.204431,-0.030924,0.298242
2780,0.241487,0.28087,-0.145884
2781,0.803414,0.926421,-0.305956
2782,1.119316,1.255292,-0.191921
2783,0.698814,0.680376,-0.444526
2784,0.500776,0.043806,-0.400426
2785,-0.002262,-0.147244,0.606357
2786,-0.263485,0.381205,1.234538
2787,-0.414165,0.581651,1.419043
2788,-0.332825,2.05799,-0.276551
2789,-0.168931,-0.169603,0.431637
2790,-0.781923,-0.225951,0.262502
2791,-0.911927,-0.158796,1.235539
2792,-0.443117,0.54779,0.805361
2793,-0.163995,0.849688,0.74543
2794,0.344931,0.541543,0.604253
2795,-0.243187,-0.048799,0.467725
2796,-0.408906,-0.072359,0.492242
2797,-0.460692,-0.100991,0.577765
2798,-0.307403,-0.114443,0.698452
2799,-0.18719,-0.073692,0.712998
2800,-0.027164,0.018469,0.526191
2801,0.120453,0.009153,0.367356
2802,0.172222,-0.018342,0.229761
2803,0.184391,0.004489,0.211069
2804,0.106253,-0.020609,0.350851
2805,0.113953,0.023656,0.511317
2806,0.127052,0.022932,0.421044
2807,0.060404,0.05826,-0.029151
2808,0.059482,0.083882,-0.017865
2809,0.112343,0.143717,0.305423
2810,0.136989,0.054438,0.640258
2811,0.083011,0.075905,0.554674
2812,-0.204211,0.442126,0.062747
2813,-0.082311,0.307142,0.094296
2814,0.108608,0.231636,0.170498
2815,0.194293,0.003443,0.360342
2816,0.190836,-0.113018,0.518412
2817,-0.000493,-0.02289,0.393484
2818,-0.408641,0.712893,0.288164
2819,-0.770868,1.195973,0.384962
2820,-0.74128,1.339814,0.6747
2821,-0.435733,0.488845,0.44742
2822,0.015245,0.376319,0.194092
2823,0.171105,0.419449,0.162492
2824,0.07273,0.313398,0.341969
2825,-0.093409,0.217418,0.500789
2826,-0.297456,0.257895,0.622494
2827,-0.655768,0.183981,0.644018
2828,-0.857026,0.008377,0.595309
2829,-0.689139,-0.101254,0.726349
2830,-0.494445,-0.099218,0.766968
2831,-0.536056,-0.206873,0.719665
2832,-0.548356,-0.217273,0.660034
2833,-0.460418,-0.216699,0.591822
2834,-0.42823,-0.21892,0.565907
2835,-0.430459,-0.168011,0.551472
2836,-0.207999,-0.05216,0.344626
2837,0.480992,0.780104,-0.481294
2838,0.831628,1.572375,-0.817737
2839,1.51634,2.259679,-0.371107
2840,0.607465,-0.238589,-0.399631
2841,0.373954,-0.811038,0.264116
2842,-0.068683,-0.307833,0.964265
2843,-0.827136,0.049442,1.233946
2844,-1.464281,2.078416,1.106764
2845,-1.679937,3.821899,0.449174
2846,0.391074,-0.525334,-0.562121
2847,1.163836,-0.607938,1.741604
2848,-0.418107,-0.779952,1.494046
2849,-1.497578,-0.378864,0.688527
2850,-1.228456,-0.241071,0.583214
2851,-0.370542,0.582148,0.537881
2852,0.252699,0.596693,0.808758
2853,0.117197,-0.005395,0.538791
2854,-0.196997,0.023648,0.353118
2855,-0.216194,0.005324,0.439537
2856,-0.271457,0.017223,0.482894
2857,-0.295056,-0.014446,0.403433
2858,-0.224139,0.028651,0.374762
2859,-0.082916,0.092886,0.436836
2860,-0.007718,0.079332,0.495899
