,userAcceleration.x,userAcceleration.y,userAcceleration.z
0,-0.385736,0.885234,0.139064
1,-0.480781,0.675922,0.081494
2,-0.172918,0.21048,-0.130994
3,-0.24245,0.274336,-0.097224
4,-0.231413,0.30197,0.008468
5,-0.057507,-0.024981,0.107702
6,-0.012403,-0.23796,0.108178
7,0.01636,-0.622381,0.109857
8,-0.069759,-0.700922,0.104374
9,0.01678,-0.648757,0.138584
10,0.070119,-0.529453,0.177167
11,0.080131,-0.441048,0.186482
12,0.002869,-0.312229,0.160455
13,-0.076541,-0.25754,0.380849
14,-0.044578,-0.266965,0.423566
15,-0.010467,-0.23597,0.393771
16,0.033523,-0.098808,0.3579
17,-0.073339,-0.009884,0.092691
18,-0.071281,0.721916,-0.587131
19,0.022684,1.193171,-0.6197
20,-0.195562,0.210653,-0.661357
21,-0.031602,-0.506804,-0.301269
22,-0.109347,-0.410713,0.162974
23,-0.031159,0.297762,0.311262
24,-0.137354,1.096368,0.280735
25,-0.644261,1.936665,0.107522
26,-0.923762,-0.230006,0.377372
27,-0.908913,-0.379685,0.309192
28,-0.408665,-0.314746,0.247006
29,-0.110963,-0.29307,0.633227
30,-0.052463,-0.144333,0.802622
31,0.090415,-0.186864,0.532549
32,0.074448,0.169139,0.107862
33,-0.158735,0.251085,0.225359
34,-0.42711,-0.045553,0.245293
35,-0.035663,-0.295936,0.13783
36,0.054023,-0.251196,0.109563
37,0.118377,-0.263737,0.135956
38,0.126665,-0.102586,0.231794
39,-0.107534,-0.15217,0.042817
40,0.049419,-0.037585,-0.060791
41,0.103481,0.019062,-0.261812
42,0.317722,-0.179569,-0.161955
43,0.504051,-0.184818,-0.194111
44,0.479931,-0.012616,-0.080233
45,0.584677,0.04532,-0.034546
46,0.40393,0.284356,-0.296458
47,0.234512,0.563208,-0.475503
48,0.231265,0.562444,-0.468203
49,0.344259,0.356994,-0.157476
50,0.234815,0.266844,-0.040927
51,0.295818,0.06868,0.181834
52,0.01633,-0.184307,0.149369
53,0.028063,-0.126232,-0.069753
54,-0.121285,0.591743,0.052025
55,-0.311118,0.895671,0.233473
56,-0.358606,0.781715,0.186805
57,-0.248549,0.390809,-0.110207
58,-0.400098,0.427201,0.033397
59,-0.261124,0.069033,0.12299
60,0.00129,-0.088158,0.058387
61,0.130709,-0.424153,-0.032715
62,0.153351,-0.609381,-0.021698
63,0.087534,-0.470892,0.098233
64,0.080037,-0.496268,0.182313
65,0.082497,-0.483423,0.208845
66,-0.024499,-0.518489,0.229751
67,-0.169794,-0.569448,0.331996
68,-0.135757,-0.496758,0.552256
69,-0.08973,-0.457486,0.58046
70,0.137348,-0.161007,0.497278
71,-0.095416,-0.049485,-0.053413
72,-0.114284,0.330622,-0.412338
73,0.071486,1.466926,-0.917802
74,-0.072703,1.318007,-0.849478
75,-0.177186,0.463899,-0.605607
76,0.151935,1.573378,0.174746
77,-0.006052,1.563022,0.620333
78,-0.545772,0.043798,0.428639
79,-0.62874,-0.766676,0.301639
80,-0.571267,-0.714586,0.334989
81,-0.575081,-0.676052,0.491313
82,-0.291949,-0.176659,0.496368
83,0.122171,0.543351,0.680769
84,0.029794,0.554541,0.385322
85,-0.005174,0.273481,0.306222
86,-0.007501,-0.002854,0.181938
87,0.053584,-0.199416,0.139965
88,0.083866,-0.296684,0.078419
89,0.112298,-0.387173,0.051704
90,0.175274,-0.485154,0.040324
91,0.14928,-0.345973,0.019242
92,-0.011035,0.069686,0.131482
93,-0.071665,0.17601,0.164613
94,-0.154405,0.055559,0.1564
95,0.005223,-0.08844,-0.218844
96,0.074025,-0.159004,-0.225773
97,0.504741,-0.060295,-0.207303
98,0.561905,0.04915,-0.154193
99,0.646343,0.010798,-0.05771
100,0.614851,0.068671,-0.155351
101,0.518455,0.189623,-0.202126
102,0.398729,0.494649,-0.189735
103,0.268986,0.306485,-0.037003
104,0.231571,0.260488,0.064148
105,-0.07155,-0.165332,0.257188
106,-0.135713,-0.110726,-0.106898
107,-0.21949,0.668613,-0.121545
108,-0.405078,1.108133,0.026982
109,-0.501534,0.986497,0.06422
110,-0.433802,0.783103,0.001774
111,-0.221842,0.282412,-0.005037
112,-0.156359,0.234993,0.202832
113,-0.097457,0.051286,0.381795
114,-0.037563,-0.101877,0.195773
115,-0.157264,-0.35299,0.048179
116,-0.194592,-0.552144,0.042031
117,-0.141039,-0.538758,0.116207
118,-0.035613,-0.54338,0.209094
119,-0.057683,-0.632192,0.238004
120,-0.031653,-0.720099,0.273954
121,-0.012542,-0.74051,0.327656
122,0.013005,-0.665893,0.319095
123,0.031253,-0.379764,0.27989
124,0.16104,-0.130559,0.207207
125,0.104645,0.176205,-0.119306
126,0.108485,1.062474,-0.242672
127,-0.300306,1.555326,-0.677622
128,-0.615579,-0.349428,-0.57245
129,-0.422037,-0.120903,-0.412608
130,-0.184395,0.472716,-0.201117
131,0.244693,1.973847,0.499843
132,-0.397217,1.697315,0.466383
133,-0.720922,-0.764377,0.403895
134,-0.496988,-0.685855,0.356575
135,-0.51632,-0.308766,0.355818
136,-0.046328,-0.028557,0.481061
137,0.205204,0.092757,0.844834
138,-0.040173,0.121975,0.438558
139,-0.015506,0.227378,0.144324
140,-0.029409,0.131214,0.219403
141,-0.08456,-0.08216,0.057852
142,0.000845,-0.333546,0.113431
143,0.093052,-0.421384,0.105615
144,0.140718,-0.466841,0.06117
145,-0.07187,-0.157269,0.165177
146,-0.093314,-0.007572,0.169836
147,-0.095863,0.204373,0.119533
148,-0.090982,0.215026,0.086012
149,0.00987,0.011371,-0.271706
150,0.352402,-0.243624,-0.175315
151,0.523963,-0.018318,-0.107658
152,0.533942,0.097571,-0.056962
153,0.60991,0.120945,-0.062718
154,0.475426,0.334777,-0.254414
155,0.324439,0.489864,-0.261012
156,0.361773,0.427548,-0.181634
157,0.355459,0.230884,-0.007975
158,0.37022,0.075973,0.226517
159,0.033511,-0.238766,0.166054
160,0.049503,0.013202,-0.084467
161,-0.052834,0.438383,-0.030318
162,-0.360346,1.043068,0.11561
163,-0.447651,0.750138,0.145083
164,-0.192201,0.186332,-0.073884
165,-0.258713,0.23804,0.041514
166,-0.334557,0.187382,0.259064
167,0.002494,-0.14103,0.181701
168,0.049009,-0.302212,0.148596
169,-0.034706,-0.548041,0.077987
170,-0.0697,-0.578551,0.150434
171,0.001125,-0.600063,0.277727
172,-0.019087,-0.54773,0.330543
173,-0.099528,-0.550071,0.27414
174,-0.110144,-0.541517,0.26451
175,-0.145934,-0.512815,0.245212
176,-0.105467,-0.294038,0.331064
177,0.093949,0.084997,0.350088
178,0.181263,0.077842,0.378639
179,-0.134751,0.548766,-0.084683
180,0.313964,1.623982,-0.86908
181,-0.209842,0.274205,-0.742797
182,-0.317667,-0.472555,-0.52068
183,-0.216887,0.0431,0.052532
184,0.251444,1.703888,0.160129
185,-0.235952,2.50311,0.551564
186,-0.713511,-0.338394,0.448489
187,-0.536324,-0.822573,0.494664
188,-0.504556,-0.58995,0.412515
189,-0.347416,-0.312856,0.326512
190,-0.168927,0.289162,0.79855
191,-0.012728,0.390893,0.603436
192,0.1561,0.342389,-0.038254
193,-0.109289,-0.062076,0.314496
194,-0.185958,-0.155404,0.249652
195,-0.09973,-0.421908,0.203384
196,-0.009721,-0.463362,0.086967
197,0.008201,-0.434411,0.039119
198,-0.011682,-0.108301,0.151302
199,-0.118586,0.13185,0.160477
200,-0.107199,0.166628,0.205706
201,0.110802,0.050595,-0.216154
202,0.341579,-0.263542,-0.240345
203,0.538364,-0.219252,-0.243995
204,0.568427,-0.022918,-0.03845
205,0.616385,-0.028115,0.00428
206,0.50683,0.196221,-0.248937
207,0.248129,0.543427,-0.392302
208,0.228434,0.608374,-0.2041
209,0.250962,0.439643,-0.119873
210,0.370265,0.392082,0.069599
211,0.225969,0.055432,0.320668
212,-0.029116,-0.264051,0.16567
213,-0.036982,0.077934,-0.024178
214,-0.22695,0.696127,0.055225
215,-0.354489,0.764943,0.166285
216,-0.318704,0.559995,0.14907
217,-0.200338,0.320323,-0.019802
218,-0.29743,0.341745,0.168793
219,-0.353568,0.307288,0.289373
220,-0.131356,0.104066,0.217369
221,0.007383,-0.526104,0.144042
222,-0.0954,-0.619428,0.136145
223,-0.151308,-0.649671,0.183603
224,-0.027939,-0.592331,0.279974
225,-0.035459,-0.552743,0.325273
226,-0.031919,-0.528554,0.253032
227,-0.120636,-0.489572,0.148451
228,-0.174432,-0.457032,0.197103
229,-0.143685,-0.390898,0.274851
230,0.140684,0.090416,0.427943
231,0.246705,-0.011601,0.39633
232,0.089827,-0.000315,0.165024
233,0.267825,1.600382,-0.898241
234,-0.303694,-0.173708,-0.852324
235,-0.222703,0.101828,-0.40682
236,-0.137359,0.766554,-0.185526
237,0.610272,2.411366,0.767728
238,-0.757458,-0.348048,0.456815
239,-0.681609,-1.098261,0.580043
240,-0.541518,-0.988697,0.527325
241,-0.607196,-0.493936,0.463524
242,-0.351519,-0.23221,0.373707
243,0.047483,0.357459,0.610835
244,0.140548,0.505211,0.180209
245,0.183625,0.206101,0.201843
246,0.173156,0.07404,0.278466
247,0.009472,-0.338022,0.165283
248,-0.026242,-0.452701,0.187079
249,0.0718,-0.481409,0.079191
250,0.073509,-0.41513,0.029226
251,-0.044215,0.057935,0.215586
252,-0.144295,0.210602,0.134444
253,-0.195899,0.177437,0.168862
254,-0.114489,-0.006277,-0.16875
255,-0.110085,-0.08951,-0.228502
256,0.327325,-0.223616,-0.079944
257,0.450254,0.078915,-0.01397
258,0.442361,0.123279,-0.033879
259,0.568424,0.117693,-0.076899
260,0.509614,0.257089,-0.232044
261,0.444054,0.367692,-0.247244
262,0.480128,0.393761,-0.106868
263,0.44534,0.263448,0.009176
264,0.418707,0.279291,0.136104
265,0.006286,-0.175686,0.252676
266,-0.07789,-0.156918,-0.09126
267,-0.088547,0.431195,-0.171999
268,-0.301707,0.907058,-0.060547
269,-0.369065,0.721952,0.054581
270,-0.350482,0.545244,-0.007351
271,-0.384191,0.434945,-0.011346
272,-0.412211,0.286964,0.335275
273,-0.070255,-0.01605,0.330973
274,-0.089005,-0.04194,0.320628
275,-0.029574,-0.55848,0.105611
276,-0.140501,-0.500679,0.062611
277,-0.10362,-0.428558,0.135788
278,-0.049653,-0.425864,0.243835
279,-0.056817,-0.455639,0.25186
280,-0.219932,-0.467875,0.241363
281,-0.072055,-0.448239,0.284983
282,0.029536,-0.382861,0.399212
283,0.159505,-0.207055,0.447386
284,0.163162,-0.195123,0.268074
285,0.168175,0.242897,-0.225404
286,0.27833,1.148165,-0.770155
287,-0.269589,0.516901,-0.720772
288,-0.346875,0.239935,-0.442428
289,0.075843,1.617382,0.301115
290,0.294205,2.138721,0.639521
291,-0.548529,-0.018301,0.348633
292,-0.656921,-0.892487,0.406209
293,-0.607309,-0.845315,0.311527
294,-0.660646,-0.172722,0.447857
295,-0.149725,0.369452,0.44904
296,0.015959,0.364823,0.631559
297,-0.134383,0.423949,0.238511
298,0.026816,0.278282,0.183428
299,0.001992,0.024826,0.293109
300,0.039302,-0.184494,0.142717
301,0.065195,-0.365933,0.173617
302,0.040944,-0.442969,0.172726
303,0.097193,-0.460434,0.14241
304,-0.041445,-0.237917,0.168379
305,-0.058779,-0.107754,0.194359
306,-0.09365,-0.082816,0.11324
307,0.012074,-0.060491,-0.076311
308,0.096575,-0.101491,-0.225469
309,0.288194,-0.166686,-0.235566
310,0.444217,-0.153156,-0.207813
311,0.601253,0.077316,0.017085
312,0.442895,0.080893,-0.043286
313,0.653783,0.128148,-0.158057
314,0.330405,0.536175,-0.296709
315,0.417181,0.512491,-0.163464
316,0.467232,0.490813,-0.116119
317,0.331068,0.203688,0.162369
318,0.092134,-0.009371,0.28718
319,-0.104054,-0.155438,0.228285
320,-0.160943,0.354627,0.035277
321,-0.429006,0.810878,0.181593
322,-0.452254,0.847808,0.227309
323,-0.185399,0.377537,-0.049738
324,-0.242781,0.354945,-0.060554
325,-0.287616,0.281841,0.195421
326,-0.041861,0.071958,0.134245
327,0.136753,-0.135673,0.126455
328,-0.053206,-0.573992,0.145232
329,-0.121669,-0.631927,0.22161
330,-0.078339,-0.564821,0.321532
331,0.01115,-0.473844,0.264625
332,-0.080789,-0.411713,0.145125
333,-0.129339,-0.395235,0.135462
334,-0.168954,-0.481059,0.397732
335,-0.072245,-0.335104,0.542507
336,0.123608,-0.219226,0.575442
337,0.295829,-0.250899,0.454842
338,0.172034,0.147861,-0.303852
339,0.211881,1.16081,-0.862951
340,-0.107678,0.617828,-0.780614
341,-0.230019,-0.018888,-0.563683
342,-0.163238,-0.59091,-0.142054
343,-0.020564,1.429118,0.310714
344,0.21597,4.188099,0.923392
345,-0.893245,-0.221188,0.241836
346,-0.866513,-0.836416,0.396635
347,-0.735181,-0.738028,0.383334
348,-0.507421,-0.366263,0.429116
349,-0.075609,0.094614,0.684361
350,0.042131,0.367095,0.788658
351,0.341837,0.414952,0.341174
352,0.182512,0.141496,0.197001
353,-0.128602,-0.210684,0.196352
354,-0.054252,-0.331902,0.212974
355,0.06596,-0.445998,0.234991
356,0.092338,-0.485568,0.177218
357,0.095571,-0.341374,0.197359
358,0.067741,-0.144258,0.271289
359,-0.090361,0.076443,-0.035156
360,0.042816,0.12456,-0.189407
361,-0.125017,0.245519,-0.355412
362,0.082639,-0.237144,-0.202886
363,0.41185,-0.243914,-0.064442
364,0.52137,-0.035049,0.07946
365,0.571481,0.018125,-0.00025
366,0.400937,0.27737,-0.252265
367,0.290447,0.579263,-0.376772
368,0.342499,0.633395,-0.169159
369,0.322407,0.376006,-0.04799
370,0.340955,0.170045,0.269573
371,0.124403,-0.000579,0.340511
372,-0.084334,-0.156886,0.122306
373,-0.137131,0.668195,0.03968
374,-0.324461,0.858193,0.162866
375,-0.352509,0.795502,0.168446
376,-0.316834,0.373657,-0.09399
377,-0.332363,0.360317,-0.094395
378,-0.454536,0.304078,0.327002
379,-0.017944,-0.035533,0.254852
380,0.039705,-0.292292,0.222678
381,0.00973,-0.629617,0.178549
382,-0.084928,-0.64109,0.207765
383,0.03094,-0.566479,0.283205
384,0.0367,-0.528188,0.281219
385,-0.033889,-0.457038,0.210347
386,-0.187697,-0.431683,0.154639
387,-0.292578,-0.40573,0.217283
388,-0.211569,-0.356901,0.386559
389,0.071691,-0.146283,0.483064
390,0.274413,-0.241291,0.477256
391,0.156194,-0.040642,0.015636
392,0.277991,1.051735,-0.803306
393,-0.131728,1.001006,-0.759116
394,-0.314148,-0.341153,-0.519522
395,-0.030031,0.71644,0.037359
396,0.660324,1.908661,0.604613
397,-0.258852,2.654334,0.42638
398,-0.74774,-0.273374,0.326107
399,-0.817943,-0.804587,0.411351
400,-0.692371,-0.459947,0.367435
401,-0.510603,0.038578,0.338803
402,-0.057886,0.123998,0.704557
403,-0.066979,0.253167,0.656713
404,0.150847,0.361164,0.077051
405,0.176166,0.170941,0.26199
406,0.088317,0.002085,0.284173
407,0.049738,-0.223135,0.179802
408,0.048601,-0.30575,0.179985
409,0.081202,-0.341556,0.152207
410,0.06087,-0.300961,0.109373
411,0.007168,-0.180084,0.132366
412,-0.129654,-0.121713,0.135467
413,-0.084888,-0.117945,0.071219
414,0.097344,-0.095122,-0.094639
415,0.092617,-0.276318,-0.369552
416,0.221754,-0.223011,-0.336959
417,0.420279,0.004538,-0.098034
418,0.514417,0.015359,0.060768
419,0.567715,0.056183,-0.061642
420,0.31571,0.424461,-0.306781
421,0.378701,0.525098,-0.197065
422,0.341922,0.287814,0.035917
423,0.393825,0.191718,0.157356
424,-0.002028,-0.26994,0.202487
425,-0.009934,-0.05936,-0.096218
426,-0.054408,0.390393,-0.064286
427,-0.328308,1.057099,0.172693
428,-0.227408,0.843893,0.167051
429,-0.16501,0.628463,0.044804
430,-0.190897,0.436605,-0.019759
431,-0.22965,0.37754,0.249369
432,0.072073,0.023488,0.169625
433,0.04935,-0.17639,0.109383
434,-0.09735,-0.490363,0.091228
435,-0.227229,-0.55782,0.200147
436,-0.025068,-0.47471,0.359046
437,0.007764,-0.459417,0.39242
438,-0.005476,-0.474571,0.384621
439,-0.1475,-0.51693,0.215709
440,-0.104213,-0.491858,0.289366
441,-0.065827,-0.489086,0.385422
442,0.011495,-0.287697,0.453703
443,0.15962,-0.239812,0.466053
444,-0.043759,-0.076693,0.075636
445,0.086337,0.763394,-0.564531
446,-0.420826,0.828898,-1.050014
447,-0.276667,0.657466,-0.872938
448,0.303835,1.878433,0.167514
449,-0.030748,1.400888,0.846732
450,-0.798895,-0.332586,0.51574
451,-0.508262,-0.723033,0.520348
452,-0.600157,-0.332169,0.656548
453,-0.505967,-0.166485,0.556606
454,-0.173153,0.466876,0.583817
455,0.02904,0.458079,0.486374
456,-0.078368,0.423242,0.22627
457,0.053986,0.175295,0.292421
458,0.097799,-0.099261,0.199943
459,0.100884,-0.259684,0.159991
460,0.025671,-0.422865,0.229512
461,0.006633,-0.446693,0.21717
462,-0.037164,-0.429547,0.191907
463,-0.08569,-0.11012,0.199963
464,-0.05249,-0.008189,0.17737
465,-0.12545,0.09216,0.108976
466,0.1764,-0.00643,-0.13463
467,0.094807,-0.151112,-0.197227
468,0.37598,-0.213888,-0.234083
469,0.533973,0.050709,-0.138469
470,0.585689,0.087499,-0.007126
471,0.607244,0.040855,-0.09756
472,0.4156,0.285112,-0.246203
473,0.315598,0.409227,-0.191601
474,0.412297,0.27698,-0.138938
475,0.230039,0.115904,-0.037574
476,0.282969,0.010898,0.140513
477,0.097211,-0.007616,0.131492
478,0.020633,0.216447,0.040419
479,-0.176275,0.832639,0.146094
480,-0.276566,1.031663,0.213493
481,-0.33694,0.879937,0.244901
482,-0.169183,0.317256,0.02935
483,-0.084136,0.17921,0.013678
484,-0.436382,0.248311,0.292397
485,-0.182372,-0.041284,0.223836
486,0.073909,-0.234141,0.110869
487,0.072245,-0.396902,0.085506
488,-0.017547,-0.501225,0.206319
489,0.036381,-0.509671,0.31101
490,0.043208,-0.501055,0.398511
491,-0.130998,-0.570078,0.264081
492,-0.226402,-0.547346,0.211547
493,-0.296441,-0.522085,0.232944
494,-0.074349,-0.183746,0.428599
495,0.168304,-0.065975,0.472353
496,0.337451,-0.101144,0.527091
497,0.158958,0.594616,-0.419338
498,0.234619,1.230319,-0.900744
499,0.132591,1.338291,-1.029157
500,-0.232271,0.462448,-0.185061
501,0.10334,1.408641,0.125605
502,0.349645,2.803715,0.955735
503,-0.64662,0.005515,0.340706
504,-0.708805,-0.951854,0.453986
505,-0.785953,-0.425707,0.47795
506,-0.771583,-0.236862,0.450579
507,-0.217196,0.178792,0.518477
508,-0.007588,0.325659,0.599331
509,0.157566,0.490165,0.084022
510,0.275984,0.310284,0.203676
511,0.235641,-0.277633,0.270331
512,0.188135,-0.4298,0.233249
513,0.09316,-0.586507,0.192049
514,0.105148,-0.54143,-0.005725
515,0.046821,-0.326147,-0.048052
516,-0.324788,0.166524,0.097764
517,-0.029581,0.232865,0.097081
518,-0.223595,0.141788,0.092598
519,0.190888,-0.319019,-0.178053
520,0.633444,-0.14856,-0.180504
521,0.739131,-0.081402,-0.02626
522,0.64719,-0.109675,-0.052929
523,0.482732,0.272175,-0.258056
524,0.392158,0.567405,-0.243497
525,0.323629,0.526375,-0.154472
526,0.264204,0.361519,-0.022413
527,0.2197,0.11825,0.265145
528,0.064828,-0.075692,0.21759
529,-0.034988,0.06736,-0.051517
530,-0.198408,0.729964,0.013685
531,-0.422935,0.959169,0.14886
532,-0.478642,0.848387,0.211962
533,-0.32546,0.321827,0.029726
534,-0.205936,0.218485,-0.022792
535,-0.375789,0.29894,0.200232
536,-0.023879,-0.049679,0.126573
537,0.017307,-0.217853,0.122887
538,0.026603,-0.365581,0.119346
539,-0.019493,-0.648299,0.258293
540,0.023051,-0.642981,0.335979
541,0.0285,-0.591041,0.376912
542,-0.067117,-0.506127,0.243072
543,-0.094799,-0.501854,0.22553
544,-0.156237,-0.509495,0.209134
545,-0.138093,-0.268353,0.451573
546,0.082568,-0.114039,0.52835
547,0.31993,-0.043843,0.604934
548,0.11128,0.45407,-0.340707
549,0.207204,1.273693,-0.909052
550,-0.364433,1.522602,-0.916531
551,-0.462336,-0.410722,-0.331949
552,-0.322335,-0.770813,0.011872
553,-0.605774,0.621507,-0.204544
554,1.284433,2.942191,1.554952
555,-0.507091,1.333624,-0.012888
556,-0.760324,-0.928249,0.515092
557,-0.589084,-0.729283,0.517627
558,-0.63689,-0.55414,0.548583
559,-0.088664,0.121661,0.629083
560,0.044313,0.51575,0.896794
561,0.338918,0.537933,0.44718
562,-0.076124,-0.003476,0.188398
563,-0.178361,-0.113709,0.292873
564,-0.053407,-0.143975,0.192482
565,0.026691,-0.279866,0.196382
566,0.079917,-0.294548,0.115668
567,0.092341,-0.2853,0.097116
568,-0.120298,-0.064681,0.219606
569,-0.15777,0.04683,0.181132
570,-0.02685,0.069847,0.233637
571,0.163362,-0.165176,-0.192965
572,0.360802,-0.332461,-0.212667
573,0.559417,-0.19596,-0.197197
574,0.524007,0.06784,-0.017105
575,0.543508,0.157913,0.076071
576,0.468685,0.268836,-0.12338
577,0.381605,0.475844,-0.23977
578,0.387857,0.458581,-0.15102
579,0.185708,0.180148,-0.032851
580,0.246078,0.035703,0.166682
581,-0.020111,-0.120121,0.220004
582,-0.083142,-0.226303,0.137286
583,-0.102564,0.517718,0.055396
584,-0.182459,0.913751,0.055239
585,-0.195598,0.952352,0.085775
586,-0.077666,0.386972,-0.120976
587,-0.201091,0.302785,-0.12241
588,-0.250718,0.31495,0.192604
589,-0.24318,0.234191,0.298733
590,0.06193,-0.266275,0.181602
591,-0.005663,-0.356981,0.161791
592,-0.116748,-0.36144,0.134885
593,-0.055736,-0.52207,0.350336
594,-0.001328,-0.508646,0.426192
595,-0.033954,-0.519174,0.479711
596,-0.102883,-0.644185,0.360671
597,-0.113839,-0.617472,0.303419
598,-0.074567,-0.594851,0.360746
599,0.145744,-0.117786,0.420127
600,0.284095,-0.032948,0.393159
601,0.319135,0.507135,-0.078141
602,0.239446,1.463406,-0.70083
603,-0.512163,0.644042,-0.793885
604,-0.372479,0.752052,-0.367417
605,0.538411,2.379384,0.542555
606,0.528036,2.382988,0.541485
607,-0.712727,-0.532166,0.441263
608,-0.495582,-0.728095,0.424286
609,-0.692601,-0.546056,0.528434
610,-0.717605,-0.133549,0.605448
611,-0.34577,0.221869,0.551394
612,0.0768,0.468026,0.750769
613,-0.039858,0.691324,0.21564
614,0.12116,0.482159,0.314805
615,0.27634,-0.158288,0.260031
616,0.142232,-0.445316,0.299246
617,0.048957,-0.649512,0.283803
618,0.099817,-0.663542,0.134086
619,0.101538,-0.378454,0.121263
620,-0.044887,0.111935,0.256925
621,-0.328622,0.289339,0.133754
622,-0.114659,0.108228,-0.010216
623,-0.203478,0.114968,-0.196217
624,0.155758,-0.197975,-0.106958
625,0.573677,-0.084203,-0.037022
626,0.690716,0.017561,0.018052
627,0.626618,-0.088032,-0.032932
628,0.602076,0.188689,-0.220107
629,0.484805,0.562249,-0.227369
630,0.412144,0.669551,-0.199525
631,0.261148,0.457131,0.018406
632,0.160389,0.209928,0.259986
633,-0.019276,-0.144489,0.217499
634,0.017093,1.50E-05,-0.096715
635,-0.013905,0.613288,-0.030923
636,-0.143814,0.811442,0.065205
637,-0.239756,0.666524,0.078702
638,-0.331614,0.212191,-0.070921
639,-0.395343,0.232726,0.034166
640,-0.407087,0.200942,0.176421
641,-0.191257,-0.190413,0.419302
642,-0.167673,-0.210739,0.350314
643,-0.131017,-0.308264,0.272526
644,-0.070483,-0.410597,0.198482
645,0.014693,-0.370206,0.293678
646,0.05641,-0.386815,0.370145
647,-0.091547,-0.495994,0.241607
648,-0.197384,-0.470099,0.212335
649,-0.23711,-0.344433,0.231582
650,0.00693,-0.198327,0.286968
651,0.124291,-0.152065,0.27074
652,0.233027,-0.072201,0.076558
653,0.155003,0.519525,-0.376506
654,0.186763,0.848501,-0.615555
655,-0.317057,0.174866,-0.5757
656,-0.300838,0.212407,-0.485791
657,0.172336,1.488433,0.050101
658,-0.352253,1.257915,0.399454
659,-0.665794,0.055677,0.311924
660,-0.618992,-0.786911,0.310115
661,-0.84248,-0.450442,0.530977
662,-0.476893,-0.012319,0.521135
663,0.091754,0.468167,0.840558
664,0.070279,0.3921,0.680144
665,-0.079541,0.337358,0.260563
666,0.014926,0.180406,0.42206
667,0.051221,-0.070014,0.292705
668,0.067035,-0.314623,0.231696
669,0.011372,-0.420336,0.23083
670,0.050475,-0.426548,0.166002
671,-0.000931,-0.2297,0.165801
672,-0.078907,-0.039932,0.21214
673,-0.377919,0.106424,0.076
674,-0.099548,0.075396,0.076678
675,-0.188372,0.059511,-0.02408
676,0.186317,-0.286717,-0.080368
677,0.544824,-0.061596,-0.097557
678,0.587127,0.018043,-0.02476
679,0.678217,-0.109491,-0.030289
680,0.663019,0.076248,-0.204923
681,0.590421,0.250791,-0.244957
682,0.327091,0.552856,-0.153545
683,0.222337,0.373241,0.046918
684,0.223849,0.324309,0.143054
685,0.130499,0.241214,0.250321
686,-0.092844,0.19133,-0.136266
687,-0.125944,0.500886,-0.074965
688,-0.233673,0.789031,0.033962
689,-0.277831,0.628176,0.021623
690,-0.29358,0.526239,-0.004793
691,-0.354618,0.221462,0.072526
692,-0.403716,0.007094,0.28319
693,-0.187851,-0.139888,0.287076
694,-0.051262,-0.423686,0.189207
695,-0.089129,-0.466058,0.091014
696,-0.162565,-0.452695,0.137394
697,-0.023383,-0.445699,0.291556
698,-0.000312,-0.455959,0.29473
699,0.029647,-0.448181,0.251554
700,-0.121911,-0.434022,0.19496
701,-0.158786,-0.375291,0.326722
702,-0.095466,-0.360593,0.398049
703,0.078832,-0.280052,0.392978
704,0.02274,-0.265994,0.179621
705,0.059252,0.246884,-0.195296
706,0.373821,1.2241,-0.795143
707,-0.374218,0.596137,-0.716753
708,-0.388751,0.391856,-0.422407
709,0.187331,2.003538,0.306625
710,0.393995,2.497192,0.684446
711,-0.746799,-0.295428,0.462159
712,-0.687825,-0.835159,0.591808
713,-0.661414,-0.508892,0.595145
714,-0.298023,0.059417,0.512825
715,0.001604,0.336544,0.719625
716,-0.15238,0.297833,0.452716
717,-0.114563,0.208536,0.221958
718,-0.075281,0.173283,0.160363
719,0.000473,0.054021,0.251854
720,-0.004144,-0.097503,0.182402
721,0.00712,-0.463167,0.178805
722,0.035231,-0.388069,0.113134
723,0.018343,-0.27042,0.159299
724,-0.059069,-0.084531,0.213528
725,-0.287654,0.115616,0.14477
726,-0.146055,0.032824,-0.012028
727,-0.078692,-0.054078,-0.203241
728,0.343318,-0.163815,-0.178659
729,0.486162,-0.093963,-0.135234
730,0.521665,0.024274,0.054208
731,0.556709,0.043286,0.038303
732,0.463574,0.212971,-0.233573
733,0.360254,0.459685,-0.319448
734,0.42898,0.516515,-0.183293
735,0.342483,0.264674,-0.096651
736,0.327813,0.161602,0.128943
737,0.08643,-0.112251,0.251299
738,-0.048198,-0.196039,0.01565
739,-0.087044,0.698909,0.014632
740,-0.249039,0.798445,0.123504
741,-0.229225,0.686545,0.164372
742,-0.298285,0.429588,-0.016796
743,-0.31428,0.371549,0.028064
744,-0.284015,0.37427,0.215991
745,-0.034038,0.044649,0.300469
746,-0.037815,0.015159,0.273665
747,-0.090077,-0.351238,0.086154
748,-0.197877,-0.501935,0.109656
749,-0.126584,-0.473213,0.221697
750,-0.07225,-0.383249,0.297188
751,-0.09853,-0.435448,0.30753
752,-0.224147,-0.530882,0.342396
753,-0.179754,-0.548015,0.411505
754,-0.074987,-0.476274,0.457652
755,-1.30E-05,-0.278959,0.405894
756,0.12803,-0.144394,0.268169
757,0.05174,0.111759,0.039318
758,0.139047,0.930505,-0.429655
759,-0.09755,1.274806,-0.744041
760,-0.42135,0.608191,-0.559784
761,-0.4271,-0.057556,-0.0828
762,-0.406172,0.549857,-0.034441
763,0.397882,2.854039,0.958158
764,-0.664024,-0.071025,0.319657
765,-0.720192,-0.678417,0.464835
766,-0.56408,-0.590319,0.457249
767,-0.450789,-0.425078,0.486169
768,-0.027474,-0.017043,0.585286
769,-0.054168,0.317659,0.965232
770,0.12781,0.474403,0.247568
771,-0.039037,0.187721,0.115753
772,-0.178232,-0.053926,0.252141
773,-0.100761,-0.262692,0.206791
774,0.001237,-0.351099,0.232783
775,0.056301,-0.397177,0.147894
776,0.088981,-0.295314,0.085532
777,-0.064419,-0.012234,0.19465
778,-0.212296,0.202302,0.220909
779,-0.033692,0.058038,0.233481
780,0.068044,-0.103519,-0.170147
781,0.415227,-0.255236,-0.262294
782,0.549861,-0.20398,-0.245192
783,0.569974,0.030309,-0.064062
784,0.53932,0.11017,-0.01325
785,0.417374,0.333291,-0.183546
786,0.345389,0.51826,-0.178208
787,0.337101,0.49128,-0.119133
788,0.252964,0.183329,0.15514
789,0.285356,0.080298,0.266672
790,-0.007245,-0.242139,0.098046
791,-0.051442,0.276848,0.048741
792,-0.287697,0.768855,0.045291
793,-0.307178,0.891247,0.153953
794,-0.143281,0.523728,0.086071
795,-0.07341,0.220945,0.009474
796,-0.068309,0.299191,0.158752
797,-0.198734,0.230118,0.35238
798,0.006064,0.063374,0.242817
799,-0.009384,-0.167678,0.166706
800,-0.218306,-0.462369,0.261449
801,-0.234525,-0.54867,0.406784
802,-0.206268,-0.539149,0.512624
803,-0.207574,-0.532939,0.536448
804,-0.165802,-0.53099,0.39899
805,-0.157428,-0.497123,0.267708
806,-0.21414,-0.340988,0.257082
807,-0.194232,-0.353951,0.249601
808,0.321397,0.09374,0.305521
809,0.110944,0.117844,0.284652
810,-0.09984,0.531336,0.050784
811,0.064533,1.342236,-0.554654
812,-0.445079,-0.236963,-0.586267
813,-0.470307,-0.323621,-0.043457
814,-0.018964,1.166963,-0.013812
815,0.956654,2.780213,1.002045
816,-0.292059,1.868973,0.264796
817,-0.62086,-0.812712,0.714299
818,-0.40353,-0.800235,0.578912
819,-0.465466,-0.492673,0.529091
820,-0.068059,0.01663,0.419979
821,0.107955,0.393934,0.812465
822,0.312456,0.466874,0.561832
823,0.005629,0.202679,0.037549
824,-0.143579,-0.265313,0.351263
825,-0.096374,-0.37929,0.318057
826,-0.052944,-0.386831,0.317739
827,-0.012005,-0.422152,0.122536
828,-0.038504,-0.117642,0.19903
829,-0.161732,0.155532,0.200527
830,-0.183558,0.265068,0.27457
831,-0.038055,0.135048,0.281423
832,0.095605,-0.073954,-0.140878
833,0.357547,-0.253521,-0.137017
834,0.480556,-0.223149,-0.14034
835,0.513496,0.121391,0.035673
836,0.537988,0.165294,0.074719
837,0.432735,0.230646,-0.113084
838,0.286397,0.311228,-0.242933
839,0.330271,0.300608,-0.111607
840,0.283273,0.236828,0.051314
841,0.434652,0.003117,0.228378
842,0.113161,-0.198704,0.244967
843,0.106152,-0.045278,0.054946
844,-0.111591,0.707799,0.037408
845,-0.272698,1.161501,0.095019
846,-0.190485,0.822261,0.154982
847,-0.109647,0.287333,0.060552
848,-0.031143,0.269567,0.110701
849,-0.282198,0.189233,0.3058
850,-0.175282,0.07418,0.323006
851,0.051705,-0.244751,0.178187
852,0.01646,-0.408227,0.162467
853,-0.122017,-0.414869,0.240566
854,-0.003072,-0.431401,0.428506
855,0.028763,-0.461623,0.494976
856,-0.103078,-0.571233,0.473892
857,-0.127665,-0.564057,0.378796
858,-0.15738,-0.48998,0.438883
859,-0.131998,-0.405418,0.491534
860,0.134476,-0.01305,0.491289
861,0.202528,-0.027392,0.334326
862,0.060421,0.49556,-0.190432
863,0.342141,1.910376,-1.147176
864,-0.495602,0.416339,-0.763982
865,-0.414062,0.315348,-0.337805
866,0.757418,2.222804,0.399917
867,0.050242,1.870703,0.746109
868,-0.668705,-0.405409,0.544648
869,-0.578116,-0.993776,0.605409
870,-0.686385,-0.748825,0.615797
871,-0.441809,-0.010038,0.540282
872,-0.035165,0.612207,0.900358
873,0.16899,0.899175,0.417224
874,0.252541,0.483134,0.173193
875,0.125315,-0.10799,0.402696
876,0.080023,-0.236618,0.323645
877,0.023572,-0.410854,0.339738
878,0.030998,-0.498933,0.269088
879,0.039286,-0.517044,0.197084
880,0.013173,-0.022154,0.266596
881,-0.082409,0.188245,0.31305
882,-0.155101,0.135092,0.207345
883,-0.025573,0.057059,-0.125046
884,-0.001106,-0.129022,-0.121824
885,0.35245,-0.262528,-0.062261
886,0.615666,-0.032649,-0.004435
887,0.637089,-0.077282,0.00053
888,0.596662,-0.133928,-0.155991
889,0.495504,0.166966,-0.269859
890,0.475888,0.434969,-0.114309
891,0.297059,0.344508,-0.051771
892,0.300851,0.256805,0.097152
893,0.232206,0.120068,0.258474
894,-0.049804,-0.112776,0.182521
895,-0.055916,-0.056901,0.016485
896,-0.187681,0.781694,0.052492
897,-0.243729,0.903627,0.13766
898,-0.255102,0.671727,0.19461
899,-0.224906,0.342089,0.022275
900,-0.232052,0.314992,0.036124
901,-0.23921,0.265562,0.32389
902,-0.002136,-0.069147,0.241021
903,-0.067453,-0.136625,0.2128
904,-0.1857,-0.380089,0.108927
905,-0.24354,-0.420849,0.297463
906,-0.176174,-0.427565,0.366565
907,-0.080271,-0.447521,0.389997
908,-4.70E-05,-0.4917,0.288296
909,-0.061741,-0.476339,0.277939
910,-0.081666,-0.478701,0.27892
911,-0.076944,-0.451385,0.343468
912,-0.008148,-0.235378,0.400301
913,0.243407,-0.145026,0.408025
914,0.212219,0.034023,0.176707
915,0.296723,0.882193,-0.318017
916,0.120668,1.383944,-0.91191
917,-0.458652,-0.048211,-0.583789
918,-0.435355,-0.205907,-0.078419
919,-0.231063,0.889027,0.038626
920,0.749862,2.694671,1.170066
921,-0.633924,0.984608,0.309982
922,-0.761356,-0.659862,0.565993
923,-0.689453,-0.648064,0.647422
924,-0.683483,-0.536226,0.623422
925,-0.164268,-0.267975,0.675905
926,-0.059073,0.201934,0.934616
927,0.250203,0.706516,0.063303
928,0.173713,0.115834,0.39278
929,-0.000661,-0.181455,0.268042
930,0.120492,-0.229272,0.267382
931,0.132463,-0.379371,0.212301
932,0.101982,-0.493469,0.087224
933,0.048117,-0.279526,0.083832
934,0.026329,-0.120175,0.184689
935,-0.141249,0.293817,0.264581
936,0.023445,0.068566,-0.002328
937,0.125626,-0.120835,-0.3013
938,0.49211,-0.322802,-0.24647
939,0.559498,-0.206118,-0.09789
940,0.483212,-0.079644,-0.032745
941,0.497021,0.096295,-0.157937
942,0.454031,0.258415,-0.215889
943,0.402474,0.501052,-0.108788
944,0.375023,0.392509,-0.035102
945,0.406728,0.333454,0.179134
946,0.107031,0.045827,0.295201
947,-0.092175,-0.032577,0.014102
948,-0.084814,0.557507,-0.048767
949,-0.298004,0.915306,0.151346
950,-0.261056,0.626258,0.189256
951,-0.250386,0.453258,0.136139
952,-0.147195,0.293188,0.078782
953,-0.244275,0.325564,0.341103
954,-0.262786,0.349755,0.375861
955,-0.038263,0.005665,0.293825
956,-0.176787,-0.58701,0.245916
957,-0.23968,-0.61831,0.298768
958,-0.213466,-0.572811,0.344569
959,0.038879,-0.562963,0.46416
960,0.073898,-0.585085,0.441372
961,0.0714,-0.595761,0.394738
962,-0.13246,-0.526652,0.380988
963,-0.1734,-0.43644,0.422464
964,0.001699,-0.132084,0.435553
965,0.280359,0.093063,0.453974
966,0.152216,0.238358,0.200338
967,0.208193,1.307524,-0.472714
968,-0.022993,1.463411,-1.004452
969,-0.556808,-0.244631,-0.410116
970,-0.308798,-0.62951,0.016677
971,-0.363249,0.104654,0.035994
972,1.611601,2.403321,1.281207
973,-0.635301,0.146411,0.361451
974,-0.858787,-0.684704,0.500731
975,-0.60402,-0.675815,0.443788
976,-0.530429,-0.46375,0.477846
977,-0.217474,-0.299391,0.547601
978,-0.036297,0.180257,1.059932
979,0.235588,0.660284,0.057643
980,-0.061073,0.191014,0.193228
981,-0.487888,-0.092804,0.360737
982,-0.078553,-0.404627,0.327865
983,-0.000289,-0.478944,0.303554
984,0.102245,-0.401425,0.181343
985,0.097701,-0.058651,0.272652
986,0.028694,0.078762,0.37316
987,-0.141885,0.141664,0.202411
988,-0.037748,0.000278,-0.008222
989,-0.063969,0.065395,-0.299784
990,0.227666,-0.24785,-0.198379
991,0.554052,-0.168205,-0.034517
992,0.646974,0.042213,0.190316
993,0.655476,-0.087008,0.061976
994,0.530735,0.097087,-0.208287
995,0.39851,0.399296,-0.266114
996,0.353312,0.417177,-0.14535
997,0.295149,0.317882,0.022301
998,0.27836,0.0293,0.300549
999,0.093445,-0.063029,0.342371
1000,-0.078622,-0.163876,0.262976
1001,-0.230604,0.796837,0.059823
1002,-0.321184,0.989715,0.173574
1003,-0.167408,1.035379,0.350956
1004,-0.082428,0.370878,0.045869
1005,-0.091324,0.345417,0.039311
1006,-0.080196,0.37205,0.083085
1007,-0.148321,0.063297,0.254909
1008,-0.088316,-0.127818,0.226196
1009,-0.03065,-0.431889,0.217232
1010,-0.14614,-0.545132,0.325336
1011,-0.108905,-0.536055,0.429943
1012,-0.084574,-0.538884,0.504227
1013,-0.080812,-0.563923,0.458513
1014,-0.109775,-0.524768,0.299903
1015,-0.158876,-0.466891,0.280492
1016,-0.119749,-0.28231,0.345273
1017,0.183949,0.034642,0.397904
1018,0.275107,0.076738,0.471899
1019,0.005658,0.727681,0.106423
1020,0.574794,1.767264,-0.864546
1021,-0.360272,0.320305,-0.618464
1022,-0.654135,-0.429753,-0.466786
1023,-0.410087,-0.033394,-0.016166
1024,1.018921,1.941505,0.510289
1025,1.247011,2.596156,1.217692
1026,-0.5963,-0.404107,0.687892
1027,-0.668743,-0.821288,0.724446
1028,-0.539174,-0.561786,0.666399
1029,-0.351746,-0.182669,0.422509
1030,-0.051932,0.202356,0.722943
1031,0.164959,0.467713,0.610191
1032,0.299946,0.533752,0.159135
1033,0.029951,0.058848,0.382545
1034,-0.161026,-0.167428,0.398064
1035,-0.077083,-0.375189,0.379121
1036,-0.029246,-0.430277,0.280811
1037,-0.027135,-0.39227,0.121235
1038,0.02852,0.00574,0.314488
1039,-0.223122,0.165294,0.250235
1040,-0.015167,0.034947,0.165084
1041,-0.04089,0.009649,-0.065633
1042,0.021564,-0.026205,-0.164229
1043,0.534803,-0.210384,-0.127617
1044,0.554347,-0.213437,-0.129195
1045,0.624056,-0.009406,0.08485
1046,0.636189,0.135144,-0.215328
1047,0.555778,0.258349,-0.262503
1048,0.507464,0.370529,-0.222388
1049,0.332874,0.290965,0.032088
1050,0.352255,0.211911,0.164982
1051,0.277093,-0.005397,0.300104
1052,0.020322,-0.151918,0.14316
1053,0.02521,0.386009,0.010495
1054,-0.191236,0.938289,0.11997
1055,-0.232416,0.937529,0.234745
1056,-0.206723,0.510809,0.136814
1057,-0.145104,0.220651,-0.00837
1058,-0.296987,0.30953,0.28319
1059,-0.324909,0.226085,0.38915
1060,-0.116039,0.067331,0.359986
1061,-0.096797,-0.371341,0.135962
1062,-0.197801,-0.455185,0.189145
1063,-0.128244,-0.491943,0.402736
1064,-0.07207,-0.486546,0.511269
1065,-0.127605,-0.577836,0.528963
1066,-0.144357,-0.594142,0.415659
1067,-0.13515,-0.543411,0.337102
1068,-0.200719,-0.374361,0.372168
1069,0.04975,-0.045102,0.33918
1070,0.384339,0.11394,0.362245
1071,0.320935,0.052441,0.291592
1072,0.328438,1.533914,-0.645594
1073,0.467852,1.936675,-1.031872
1074,-0.66443,0.124356,-0.613189
1075,-0.26959,1.327958,-0.19897
1076,0.485898,2.224833,0.212763
1077,0.729987,2.226095,0.870178
1078,-0.468203,-0.726814,0.707232
1079,-0.45883,-0.764933,0.800881
1080,-0.502745,-0.643458,0.916243
1081,-0.023987,0.192607,0.742918
1082,0.081591,0.461084,0.903745
1083,0.119489,0.821771,0.146925
1084,-0.043645,0.310853,0.142294
1085,-0.142997,-0.083256,0.34631
1086,0.017948,-0.378588,0.375211
1087,-0.00714,-0.496134,0.353807
1088,0.077675,-0.586401,0.170289
1089,0.028477,-0.400898,0.037981
1090,-0.050818,0.078147,0.173446
1091,-0.137204,0.370809,0.272443
1092,-0.022531,0.119817,0.327685
1093,-0.074025,-0.125835,-0.020465
1094,0.275646,-0.255722,-0.160684
1095,0.472566,-0.234309,-0.155855
1096,0.609365,-0.018806,-0.01339
1097,0.56935,0.007017,0.119125
1098,0.60524,0.069873,0.013317
1099,0.433113,0.401325,-0.145444
1100,0.445838,0.400189,-0.064487
1101,0.400334,0.343256,-0.055315
1102,0.303258,0.115717,0.186006
1103,0.16882,-0.035159,0.280113
1104,-0.015338,-0.179737,0.112555
1105,-0.027936,0.284147,-0.002684
1106,-0.230371,0.833827,0.12867
1107,-0.260573,0.850627,0.23836
1108,-0.189644,0.547049,0.192601
1109,-0.228554,0.337469,0.13188
1110,-0.259861,0.36179,0.239611
1111,-0.292774,0.327234,0.355679
1112,-0.012639,-0.103005,0.218607
1113,-0.002375,-0.284525,0.187301
1114,-0.044852,-0.411713,0.204055
1115,-0.080193,-0.479703,0.424214
1116,-0.076174,-0.470156,0.498249
1117,-0.08522,-0.454574,0.419606
1118,-0.124544,-0.448108,0.297525
1119,-0.168119,-0.447393,0.256139
1120,-0.087156,-0.280939,0.321881
1121,0.143149,0.00164,0.36009
1122,0.363489,-0.033481,0.49175
1123,0.011211,0.207936,0.168399
1124,0.387968,1.441873,-0.562234
1125,0.507781,1.551955,-0.861598
1126,-0.527423,-0.132091,-0.541252
1127,-0.286255,0.46842,-0.139248
1128,-0.016747,1.334178,-0.004253
1129,-0.26901,1.489477,0.644975
1130,-0.705138,-0.503281,0.678968
1131,-0.644784,-0.954761,0.736728
1132,-0.57648,-0.681131,0.803674
1133,-0.341048,-0.143291,0.544374
1134,0.178642,0.514158,0.810545
1135,0.36779,0.817491,0.47087
1136,0.274599,0.362246,-0.053942
1137,-0.003876,0.062884,0.344532
1138,-0.119515,-0.183402,0.332721
1139,-0.1525,-0.408545,0.306701
1140,-0.114225,-0.462165,0.22208
1141,-0.111495,-0.510777,0.170241
1142,-0.189846,-0.115422,0.407481
1143,-0.182221,-0.010706,0.390889
1144,-0.17334,0.131353,0.216086
1145,-0.038481,0.027758,0.015683
1146,0.003605,0.026613,-0.175119
1147,0.403912,-0.238541,-0.151061
1148,0.579157,-0.057973,-0.004175
1149,0.639337,0.085512,0.159498
1150,0.761139,0.035255,-0.012105
1151,0.602491,0.242759,-0.190786
1152,0.513492,0.483932,-0.180308
1153,0.353243,0.423657,-0.050514
1154,0.371087,0.253527,0.158107
1155,0.22609,0.06565,0.328201
1156,-0.030063,-0.145544,0.165806
1157,-0.051792,0.593027,0.032761
1158,-0.205765,0.812951,0.111913
1159,-0.289149,0.863561,0.172709
1160,-0.240994,0.3693,0.046323
1161,-0.259428,0.285899,0.063329
1162,-0.388199,0.293942,0.335016
1163,-0.115504,0.014765,0.362605
1164,-0.017512,-0.097511,0.278853
1165,-0.068037,-0.454994,0.207067
1166,-0.218024,-0.473908,0.287766
1167,-0.086788,-0.482414,0.408009
1168,-0.055433,-0.441815,0.460475
1169,-0.084934,-0.442409,0.387465
1170,-0.072613,-0.412538,0.349066
1171,-0.140015,-0.40621,0.237696
1172,-0.088269,-0.267823,0.287438
1173,-0.007392,-0.186722,0.292402
1174,0.314328,-0.129931,0.405521
1175,0.077906,0.08703,0.144739
1176,0.424774,1.264797,-0.635457
1177,-0.014935,0.974125,-0.744513
1178,-0.500641,0.061015,-0.51948
1179,-0.329605,0.973073,-0.071963
1180,0.798382,2.244716,0.966569
1181,-0.677492,0.55005,0.511989
1182,-0.498449,-0.634799,0.710565
1183,-0.535481,-0.806371,0.740422
1184,-0.283732,-0.113697,0.633251
1185,-0.104784,0.148268,0.620823
1186,0.043921,0.277745,0.747881
1187,0.048865,0.524671,0.022301
1188,0.076908,0.499824,-0.025294
1189,-0.139347,0.032108,0.3774
1190,-0.098446,-0.330182,0.427218
1191,-0.079058,-0.409318,0.389861
1192,-0.059123,-0.453067,0.178704
1193,-0.05387,-0.149588,0.154197
1194,-0.086955,0.132848,0.294797
1195,-0.210963,0.188785,0.247932
1196,-0.031348,-0.042306,0.206787
1197,0.006576,-0.119843,-0.14804
1198,0.287327,-0.331303,-0.181197
1199,0.543079,-0.217665,-0.182288
1200,0.682595,0.064888,0.02021
1201,0.670624,0.050225,0.150067
1202,0.670727,0.068317,-0.091353
1203,0.483535,0.321146,-0.188292
1204,0.474714,0.412348,-0.100304
1205,0.307642,0.243982,-0.002879
1206,0.328552,0.134059,0.202525
1207,-0.0459,-0.110364,0.209462
1208,-0.073602,-0.015873,0.095351
1209,-0.269125,0.862468,0.104636
1210,-0.301733,0.936759,0.254632
1211,-0.192396,0.6824,0.213742
1212,-0.128681,0.281031,0.037212
1213,-0.157914,0.387269,0.121986
1214,-0.320353,0.261322,0.366922
1215,-0.119341,0.056889,0.34277
1216,-0.028391,-0.206815,0.207674
1217,-0.176424,-0.414761,0.212218
1218,-0.255671,-0.421605,0.322573
1219,-0.153735,-0.472871,0.458146
1220,-0.13108,-0.463415,0.515538
1221,-0.13121,-0.540555,0.445244
1222,-0.150667,-0.520856,0.320332
1223,-0.177997,-0.424483,0.303015
1224,-0.040075,-0.196129,0.304583
1225,0.279345,0.084417,0.331487
1226,0.339816,-0.029086,0.36191
1227,0.065065,0.505149,0.036437
1228,0.625118,1.489509,-0.796912
1229,-0.228083,-0.156737,-0.398713
1230,-0.54991,-0.429183,-0.369477
1231,-0.563353,-0.472411,-0.101413
1232,1.46979,2.585836,1.295997
1233,0.171394,2.993759,0.751296
1234,-0.736022,-0.150912,0.610274
1235,-0.558255,-0.895457,0.782118
1236,-0.540454,-0.62231,0.747949
1237,-0.38667,-0.210988,0.460805
1238,-0.077391,0.498861,0.899959
1239,0.196184,0.47238,0.631557
1240,0.191719,0.398521,-0.017198
1241,-0.099754,-0.087117,0.50843
1242,-0.174863,-0.209967,0.474748
1243,-0.082358,-0.395734,0.432754
1244,-0.036147,-0.440823,0.227056
1245,-0.022639,-0.310086,0.100302
1246,-0.055,0.014397,0.199615
1247,-0.252748,0.261036,0.176246
1248,0.041428,0.146022,0.301506
1249,0.00717,-0.044054,-0.013261
1250,0.395946,-0.30586,-0.067882
1251,0.6322,-0.254802,-0.095549
1252,0.631197,-0.027308,0.009946
1253,0.633538,0.056555,-0.122967
1254,0.601408,0.154141,-0.234065
1255,0.479493,0.422363,-0.116527
1256,0.477699,0.40194,-0.041218
1257,0.278939,0.183804,0.073079
1258,0.287289,0.034354,0.240336
1259,-0.014,-0.081528,0.218656
1260,-0.0899,-0.098854,0.077859
1261,-0.167816,0.734928,0.024903
1262,-0.268456,0.94824,0.247973
1263,-0.194323,0.746635,0.310115
1264,-0.125969,0.309288,0.091521
1265,-0.172251,0.415555,0.113409
1266,-0.230489,0.44437,0.234902
1267,-0.062831,0.097312,0.346689
1268,-0.060117,-0.072672,0.29622
1269,-0.143347,-0.46073,0.24565
1270,-0.228765,-0.557823,0.353145
1271,-0.148586,-0.445738,0.419115
1272,-0.148128,-0.384641,0.474201
1273,-0.088103,-0.433167,0.398385
1274,-0.105218,-0.453785,0.322572
1275,-0.09131,-0.484361,0.307074
1276,-0.072657,-0.414107,0.318501
1277,0.331668,0.082914,0.41673
1278,0.407424,0.048394,0.425459
1279,0.244866,0.092987,0.29641
1280,0.280317,1.784217,-0.751917
1281,-0.382778,0.675359,-0.504631
1282,-0.562954,-0.200599,-0.534222
1283,-0.752366,0.569273,-0.042568
1284,0.611948,1.746397,0.389719
1285,0.215921,2.712976,0.771226
1286,-0.466101,-0.217131,0.710106
1287,-0.618988,-0.74959,0.80902
1288,-0.424667,-0.557831,0.828367
1289,-0.249112,-0.107128,0.512167
1290,-0.091224,0.192159,0.737763
1291,-0.14105,0.438304,0.801935
1292,-0.066274,0.15723,0.034132
1293,-0.049772,0.088789,0.314195
1294,-0.084861,-0.146726,0.489889
1295,-0.012342,-0.355798,0.430175
1296,0.064538,-0.456052,0.301283
1297,0.066783,-0.302066,0.044407
1298,0.146992,0.074733,0.228131
1299,-0.107984,0.147269,0.273847
1300,0.065995,-0.027513,0.184207
1301,0.035343,-0.127673,-0.207431
1302,0.100152,-0.179424,-0.334033
1303,0.571648,-0.098939,-0.181967
1304,0.495689,-0.026425,0.10472
1305,0.472356,-0.008184,0.114801
1306,0.395169,0.25839,-0.246623
1307,0.407753,0.493533,-0.200432
1308,0.440968,0.549865,-0.098158
1309,0.410721,0.348491,0.183879
1310,0.221066,0.043758,0.405042
1311,0.025814,-0.101389,0.414098
1312,-0.018315,0.281675,-0.023556
1313,-0.144814,0.833972,0.123532
1314,-0.168453,0.854232,0.169339
1315,-0.204586,0.497357,0.138413
1316,-0.207667,0.343947,0.027665
1317,-0.30194,0.48803,0.095149
1318,-0.252064,0.330486,0.398467
1319,0.065693,0.098669,0.315028
1320,0.01202,0.038907,0.317182
1321,-0.23973,-0.448856,0.287203
1322,-0.219792,-0.510577,0.352121
1323,-0.171887,-0.471455,0.402689
1324,-0.064283,-0.379463,0.491478
1325,-0.087928,-0.438877,0.40027
1326,-0.107913,-0.467025,0.367744
1327,-0.176173,-0.502425,0.331484
1328,-0.092515,-0.297588,0.308215
1329,0.03076,-0.144533,0.307841
1330,0.314811,-0.041865,0.373232
1331,0.091958,0.536474,0.046185
1332,0.518119,1.835614,-0.921482
1333,-0.425205,0.434721,-0.53185
1334,-0.651424,-0.266364,-0.210644
1335,-0.713554,0.442563,-0.070253
1336,1.43699,2.473481,1.127942
1337,-0.753294,1.539018,0.4091
1338,-0.586961,-0.653065,0.810064
1339,-0.453279,-1.003429,0.744495
1340,-0.418507,-0.679853,0.815029
1341,-0.060047,-0.217788,0.579535
1342,0.040853,0.27774,0.826402
1343,0.272147,0.527568,0.560995
1344,0.053049,0.413405,-0.079046
1345,-0.172518,0.027437,0.331548
1346,-0.265969,-0.23173,0.405951
1347,-0.083476,-0.357931,0.386167
1348,-0.028263,-0.393032,0.166441
1349,-0.002809,-0.264811,0.097423
1350,-0.044103,0.084414,0.232345
1351,-0.047756,0.245406,0.245422
1352,0.043239,0.031076,0.267607
1353,0.192564,-0.126294,-0.134727
1354,0.38988,-0.314067,-0.201592
1355,0.671502,-0.09134,-0.0711
1356,0.66377,0.012217,0.032841
1357,0.630482,0.072281,0.103546
1358,0.427048,0.317366,-0.219267
1359,0.390615,0.392673,-0.099915
1360,0.271085,0.323644,-0.026337
1361,0.199754,0.096675,0.196159
1362,0.153598,-0.053593,0.269646
1363,0.05217,-0.015539,0.080343
1364,-0.094074,0.591155,0.099616
1365,-0.258293,0.839826,0.157088
1366,-0.219892,0.920085,0.339385
1367,-0.121147,0.423823,0.150127
1368,-0.070804,0.245196,0.066722
1369,-0.222811,0.369055,0.22777
1370,-0.254023,0.120682,0.358623
1371,-0.077609,0.031317,0.368695
1372,-0.021688,-0.230394,0.182758
1373,-0.202858,-0.403554,0.234864
1374,-0.159185,-0.369254,0.460909
1375,-0.055645,-0.383892,0.572396
1376,-0.084404,-0.468515,0.586902
1377,-0.148524,-0.563797,0.471923
1378,-0.121733,-0.517637,0.378062
1379,-0.056351,-0.279881,0.424713
1380,0.100597,-0.060117,0.284657
1381,0.280248,-0.039204,0.269377
1382,0.108286,0.184974,0.183812
1383,0.030293,0.775528,-0.185537
1384,-0.37873,1.029371,-0.667424
1385,-0.681685,0.164418,-0.369796
1386,-0.027893,1.367417,0.076587
1387,0.660981,1.885808,0.870868
1388,-0.539679,0.248668,0.560505
1389,-0.447218,-0.52854,0.663399
1390,-0.47928,-0.556495,0.697575
1391,-0.347456,0.013894,0.748083
1392,-0.061887,0.182023,0.70287
1393,0.127358,0.258171,0.825992
1394,0.034135,0.548616,0.107334
1395,0.062942,0.298483,0.195087
1396,0.039224,0.063552,0.303536
1397,0.022399,-0.340207,0.381955
1398,-0.003219,-0.419056,0.362847
1399,-0.003799,-0.485002,0.324334
1400,-0.077094,-0.230998,0.197294
1401,-0.097859,-0.017834,0.301603
1402,-0.09424,0.143169,0.311414
1403,-0.015901,0.07221,0.142321
1404,0.122364,-0.074153,-0.229671
1405,0.364431,-0.293946,-0.148701
1406,0.611277,-0.175103,-0.109542
1407,0.628563,-0.047338,-0.027344
1408,0.61626,0.053331,0.051334
1409,0.550564,0.26348,-0.193351
1410,0.443943,0.388909,-0.222391
1411,0.309705,0.46472,-0.028723
1412,0.237198,0.313445,0.165864
1413,0.289653,0.290029,0.271608
1414,-0.051391,-0.071912,0.344226
1415,-0.033284,0.138113,0.06026
1416,-0.071469,0.460985,0.086573
1417,-0.253415,0.79923,0.131293
1418,-0.252289,0.669735,0.204061
1419,-0.223639,0.529027,0.152734
1420,-0.286258,0.433443,0.189515
1421,-0.372202,0.33005,0.42205
1422,-0.078378,0.045829,0.38649
1423,-0.072096,-0.159244,0.347692
1424,-0.180451,-0.467132,0.333347
1425,-0.236641,-0.491527,0.399721
1426,-0.073802,-0.479949,0.482956
1427,-0.048267,-0.446417,0.511874
1428,-0.087124,-0.434763,0.47737
1429,-0.113688,-0.44782,0.294338
1430,-0.169407,-0.416482,0.28649
1431,-0.141684,-0.325848,0.325037
1432,0.267229,0.063224,0.418756
1433,0.345677,-0.055978,0.457993
1434,0.171502,-0.012617,0.286038
1435,0.56016,1.454453,-0.694664
1436,-0.134435,0.750229,-0.679007
1437,-0.458799,-0.354131,-0.240661
1438,-0.37317,-0.358501,0.031426
1439,-0.011971,1.117517,-0.053659
1440,1.258317,2.224579,0.891398
1441,-0.66171,0.241593,0.405741
1442,-0.867246,-0.73915,0.671961
1443,-0.504654,-0.62828,0.568543
1444,-0.415904,-0.147205,0.450547
1445,0.029722,0.055616,0.60358
1446,0.015382,0.240752,0.91794
1447,0.210367,0.169074,0.606664
1448,-0.050872,0.085159,0.389972
1449,-0.301168,-0.205685,0.486445
1450,-0.10424,-0.463266,0.441168
1451,-0.009371,-0.355493,0.22609
1452,0.036959,-0.08259,0.164355
1453,-0.021117,0.207831,0.266627
1454,-0.101968,0.085487,0.208919
1455,0.082525,0.037097,0.229511
1456,-0.01118,-0.10035,-0.082169
1457,0.285597,-0.365292,-0.157962
1458,0.421293,-0.355082,-0.144046
1459,0.583935,-0.001675,0.083584
1460,0.6049,0.023849,0.143566
1461,0.609316,0.078638,0.017471
1462,0.402527,0.377846,-0.130648
1463,0.381038,0.436233,-0.038489
1464,0.270167,0.366578,0.007318
1465,0.262057,0.249422,0.280056
1466,-0.072441,-0.015508,0.325078
1467,-0.099047,0.006629,0.193437
1468,-0.175295,0.7637,0.137143
1469,-0.235429,0.854382,0.247931
1470,-0.181821,0.610777,0.26775
1471,-0.152872,0.263814,0.077937
1472,-0.29865,0.428519,0.186955
1473,-0.446052,0.396882,0.353546
1474,-0.142274,0.043945,0.362102
1475,-0.071297,-0.066066,0.2938
1476,-0.06034,-0.256617,0.280915
1477,-0.273579,-0.441444,0.344507
1478,-0.147476,-0.489493,0.465101
1479,-0.077732,-0.480252,0.565759
1480,-0.083815,-0.463921,0.507059
1481,-0.07454,-0.49636,0.37133
1482,-0.146977,-0.474832,0.294281
1483,-0.094732,-0.243434,0.315748
1484,0.149105,0.033122,0.322278
1485,0.311425,-0.042745,0.345088
1486,0.099787,0.291558,0.181877
1487,0.549704,1.51592,-0.543251
1488,-0.194321,0.768215,-0.672194
1489,-0.655531,-0.21729,-0.339982
1490,-0.356866,0.527378,-0.159738
1491,0.870922,2.110685,0.535588
1492,-0.233321,1.658576,0.656728
1493,-0.655227,-0.694787,0.716445
1494,-0.571773,-0.651242,0.666197
1495,-0.522884,-0.151118,0.706073
1496,0.032408,0.197367,0.610101
1497,0.043561,0.245246,0.929583
1498,0.087321,0.388731,0.361556
1499,0.00613,0.190525,0.12909
1500,-0.005895,0.010238,0.449085
1501,-0.097796,-0.255804,0.377197
1502,-0.08892,-0.36004,0.370442
1503,-0.057725,-0.390198,0.309799
1504,-0.086971,-0.285639,0.18792
1505,-0.116006,0.078815,0.322106
1506,-0.186432,0.208432,0.271523
1507,0.035875,0.122252,0.219939
1508,0.021594,-0.021714,-0.112059
1509,0.137437,-0.166561,-0.152209
1510,0.524855,-0.235176,-0.078002
1511,0.518027,-0.091497,0.061978
1512,0.523907,-0.068834,0.102089
1513,0.535008,0.269578,-0.139919
1514,0.351375,0.521774,-0.184714
1515,0.369785,0.57666,-0.109961
1516,0.299445,0.38594,0.044775
1517,0.333761,0.297848,0.233386
1518,0.121962,0.122881,0.350409
1519,-0.093006,-0.107968,0.074016
1520,-0.094429,0.689686,0.056122
1521,-0.217023,0.788291,0.143809
1522,-0.250729,0.732632,0.202272
1523,-0.276496,0.367922,0.070628
1524,-0.324064,0.443352,0.121064
1525,-0.43431,0.472562,0.365521
1526,-0.278028,0.245575,0.491904
1527,-0.093593,0.08883,0.442669
1528,-0.178216,-0.300561,0.317146
1529,-0.263353,-0.453572,0.315056
1530,-0.223876,-0.424723,0.351237
1531,-0.038486,-0.416575,0.455421
1532,-0.135172,-0.375859,0.403443
1533,-0.113474,-0.374125,0.311522
1534,-0.208029,-0.417627,0.291179
1535,-0.154144,-0.361633,0.331831
1536,0.015552,-0.113217,0.342771
1537,0.388418,0.013689,0.42726
1538,0.209385,0.260684,0.065514
1539,0.209685,0.826809,-0.375079
1540,0.238382,1.35557,-0.884052
1541,-0.442247,-0.347071,-0.2968
1542,-0.386964,-0.073939,0.113184
1543,0.37097,1.574021,0.124237
1544,0.377474,3.13251,0.892496
1545,-0.738465,-0.159678,0.519399
1546,-0.727867,-0.776776,0.696755
1547,-0.619812,-0.465138,0.670826
1548,-0.116705,-0.077107,0.600575
1549,0.133056,0.320505,1.016006
1550,0.272275,0.452992,0.588385
1551,0.347524,0.471303,0.169919
1552,-0.091522,-0.033006,0.357118
1553,-0.208433,-0.153831,0.339665
1554,-0.145504,-0.198272,0.340816
1555,-0.040256,-0.319772,0.256744
1556,-0.05336,-0.296243,0.199302
1557,-0.052922,-0.142421,0.25284
1558,-0.173146,0.200246,0.320979
1559,-0.053778,0.173332,0.355464
1560,-0.038731,0.050946,0.224136
1561,0.13571,-0.146028,-0.22302
1562,0.245071,-0.278248,-0.184654
1563,0.478292,-0.210774,-0.130398
1564,0.50865,0.069766,0.130476
1565,0.549329,0.088865,0.107316
1566,0.489094,0.221361,-0.148935
1567,0.396687,0.508176,-0.149574
1568,0.281613,0.428273,0.012479
1569,0.264676,0.317799,0.147308
1570,0.113176,-0.003639,0.402228
1571,-0.03858,-0.101445,0.10799
1572,-0.004852,0.178359,0.083082
1573,-0.243019,0.873421,0.165196
1574,-0.291468,0.729128,0.233997
1575,-0.289505,0.570876,0.229221
1576,-0.26606,0.309006,0.095453
1577,-0.332631,0.416751,0.264377
1578,-0.400689,0.378511,0.421802
1579,-0.093785,0.070629,0.340154
1580,-0.096081,-0.250765,0.233718
1581,-0.250241,-0.491742,0.330575
1582,-0.131244,-0.473042,0.438071
1583,-0.077874,-0.47205,0.525634
1584,-0.151194,-0.470983,0.518302
1585,-0.111735,-0.438044,0.436495
1586,-0.151149,-0.436888,0.333896
1587,-0.171926,-0.24457,0.326518
1588,0.066324,-0.031081,0.347443
1589,0.33002,0.135,0.427932
1590,0.201239,0.072265,0.400697
1591,0.111764,0.969012,-0.265827
1592,0.392845,1.554129,-0.884828
1593,-0.399268,0.064983,-0.525792
1594,-0.319388,0.307736,0.068551
1595,0.510943,1.599079,0.249376
1596,0.740973,1.932614,0.88128
1597,-0.637368,-0.190497,0.68509
1598,-0.605247,-0.715816,0.821266
1599,-0.509388,-0.677687,0.847656
1600,-0.136212,-0.082266,0.578909
1601,0.116399,0.1791,0.791851
1602,0.125637,0.331355,0.836344
1603,0.085898,0.308784,0.074804
1604,-0.027148,0.031515,0.379134
1605,-0.094421,-0.079734,0.428762
1606,-0.182319,-0.324526,0.414417
1607,-0.070172,-0.348459,0.292389
1608,-0.085704,-0.372018,0.200962
1609,-0.093836,-0.023547,0.30402
1610,-0.167376,0.209796,0.237914
1611,-0.156234,0.218791,0.256686
1612,0.01602,0.01265,0.034265
1613,0.206509,-0.201337,-0.104019
1614,0.336974,-0.310053,-0.089919
1615,0.507549,-0.096585,-0.002547
1616,0.54271,0.02422,0.107844
1617,0.584183,0.0837,0.079572
1618,0.423153,0.400273,-0.211451
1619,0.359841,0.542595,-0.090701
1620,0.371227,0.521324,-0.043922
1621,0.318523,0.286024,0.181957
1622,0.03791,-0.103991,0.340453
1623,0.018205,-0.091884,0.38379
1624,-0.028759,0.19697,0.039016
1625,-0.326887,0.826217,0.160576
1626,-0.353045,0.851859,0.208233
1627,-0.21575,0.53785,0.250593
1628,-0.228862,0.385384,0.112988
1629,-0.304147,0.445022,0.224384
1630,-0.314437,0.308165,0.401003
1631,-0.047285,0.133586,0.353111
1632,-0.016189,-0.148386,0.218826
1633,-0.179125,-0.388682,0.296076
1634,-0.196994,-0.453941,0.425161
1635,-0.095446,-0.472489,0.505139
1636,-0.123943,-0.429587,0.523234
1637,-0.184174,-0.494005,0.409439
1638,-0.171455,-0.52015,0.359449
1639,-0.163582,-0.314849,0.313673
1640,0.143627,0.076916,0.285066
1641,0.337326,0.120619,0.271988
1642,0.204229,0.442441,0.196846
1643,0.453532,1.642227,-0.642817
1644,0.123316,1.456925,-0.813657
1645,-0.594826,-0.170937,-0.259729
1646,-0.398815,0.390693,0.118117
1647,0.034181,1.244946,0.184956
1648,-0.320295,1.64297,0.500783
1649,-0.555918,-0.312308,0.644208
1650,-0.587808,-0.542152,0.690469
1651,-0.53691,-0.314722,0.725492
1652,-0.207816,-0.026239,0.602634
1653,0.018456,0.074062,0.702596
1654,0.136087,0.398496,0.687024
1655,0.071132,0.350606,0.068673
1656,-0.000791,0.147441,0.158356
1657,-0.15613,-0.186198,0.427946
1658,-0.144185,-0.306304,0.405357
1659,-0.064103,-0.407873,0.388461
1660,-0.048543,-0.376445,0.180154
1661,-0.059724,0.155922,0.351121
1662,-0.176361,0.287716,0.304392
1663,-0.066424,0.236874,0.377575
1664,0.013544,-0.058585,-0.102236
1665,0.020051,-0.061999,-0.112964
1666,0.418339,-0.2913,-0.103629
1667,0.535725,0.017686,0.107519
1668,0.550586,0.013347,0.101366
1669,0.539522,0.226901,-0.137658
1670,0.389171,0.427125,-0.200177
1671,0.37603,0.396483,-0.092527
1672,0.399449,0.385256,-0.038768
1673,0.246114,0.129927,0.214446
1674,0.233801,0.137802,0.244027
1675,-0.074456,-0.165495,0.271812
1676,-0.074969,0.483091,0.07877
1677,-0.245361,0.799432,0.133889
1678,-0.34738,0.96487,0.251495
1679,-0.115056,0.486095,0.17582
1680,-0.090587,0.315494,0.118467
1681,-0.070046,0.385315,0.166111
1682,-0.100895,0.187175,0.317159
1683,-0.030893,0.105175,0.325336
1684,-0.101647,-0.335329,0.273925
1685,-0.227077,-0.432568,0.370747
1686,-0.181885,-0.470594,0.44173
1687,-0.147912,-0.49791,0.55631
1688,-0.135746,-0.488214,0.553229
1689,-0.087821,-0.4454,0.530036
1690,-0.190253,-0.4091,0.34649
1691,-0.205851,-0.279279,0.462287
1692,-0.11122,-0.180479,0.51024
1693,0.443039,0.169095,0.575836
1694,0.283008,0.150852,0.327379
1695,0.139556,0.450613,-0.014137
1696,0.393616,1.645171,-0.883784
1697,-0.452587,-0.01932,-0.501212
1698,-0.619875,-0.246419,-0.311147
1699,0.384993,1.693924,0.092398
1700,0.696867,2.183735,0.960475
1701,-0.278297,1.279922,0.690947
1702,-0.804322,-0.942543,0.639022
1703,-0.631677,-0.699544,0.790859
1704,-0.741974,-0.574907,0.933009
1705,-0.000887,0.309647,0.688405
1706,0.366383,0.58458,0.913793
1707,0.347678,0.667901,0.603185
1708,0.30913,0.272854,0.269906
1709,0.091233,-0.074635,0.331922
1710,0.03204,-0.189437,0.296432
1711,-0.075487,-0.397229,0.349971
1712,-0.092059,-0.443764,0.269775
1713,-0.112612,-0.390147,0.284748
1714,-0.176682,0.021507,0.452114
1715,-0.092749,0.28517,0.310391
1716,-0.143675,0.260421,0.275777
1717,-0.047893,-0.049333,-0.152642
1718,0.011304,-0.125316,-0.163602
1719,0.268057,-0.297275,-0.048425
1720,0.438162,0.043639,0.159947
1721,0.469785,0.036025,0.244998
1722,0.50001,0.041136,0.111722
1723,0.466374,0.216018,-0.117211
1724,0.4525,0.467047,-0.042232
1725,0.4492,0.468734,-0.0337
1726,0.287533,0.300555,0.095235
1727,0.140858,0.069226,0.38239
1728,-0.0205,-0.042953,0.336469
1729,-0.05245,0.220039,0.005224
1730,-0.184427,0.758369,0.109473
1731,-0.226539,0.822476,0.188401
1732,-0.111264,0.541547,0.18138
1733,-0.111949,0.26738,0.063718
1734,-0.159822,0.306456,0.10641
1735,-0.052028,-0.015619,0.366921
1736,-0.00266,-0.00771,0.354713
1737,-0.049587,-0.008464,0.343386
1738,-0.17559,-0.351988,0.262713
1739,-0.178937,-0.363855,0.383551
1740,-0.145541,-0.38245,0.464296
1741,-0.106712,-0.42256,0.530202
1742,-0.16411,-0.435341,0.492329
1743,-0.13106,-0.447042,0.47366
1744,-0.146503,-0.342132,0.399035
1745,-0.100247,-0.308326,0.39417
1746,-0.036712,-0.216106,0.357032
1747,0.276365,-0.023961,0.356589
1748,0.145013,0.413841,0.013533
1749,0.258102,1.004426,-0.409084
1750,-0.226769,0.719127,-0.455044
1751,-0.592509,-0.210479,-0.310685
1752,-0.572243,-0.014385,-0.164619
1753,1.790593,2.943108,1.147679
1754,-0.891302,1.461389,0.291632
1755,-0.810148,-0.205881,0.557716
1756,-0.565705,-1.044726,0.982844
1757,-0.65644,-0.620084,1.014587
1758,-0.536763,-0.312527,0.731001
1759,-0.019892,0.353574,0.765518
1760,0.4553,0.979756,0.487261
1761,0.072266,0.135259,0.094492
1762,0.069504,-0.040894,0.45642
1763,0.04475,-0.265096,0.420592
1764,0.041057,-0.271635,0.394789
1765,-0.019414,-0.459609,0.171624
1766,-0.026406,-0.129322,0.219825
1767,-0.020897,-0.135724,0.198737
1768,-0.127892,0.249621,0.399393
1769,-0.129404,-0.025135,0.032591
1770,-0.12207,-0.029539,0.016771
1771,0.400954,-0.283757,-0.086022
1772,0.525862,-0.234359,-0.039826
1773,0.621294,-0.064885,0.085576
1774,0.57759,-0.015668,0.041422
1775,0.461365,0.291518,-0.172539
1776,0.405533,0.361673,-0.09029
1777,0.365552,0.350997,0.044607
1778,0.210896,0.198617,0.154452
1779,0.282207,0.17245,0.20056
1780,0.028264,-0.000478,0.332438
1781,0.004303,0.389598,-0.031064
1782,-0.135379,0.828531,0.0616
1783,-0.351426,1.071095,0.372957
1784,-0.198071,0.618757,0.29192
1785,-0.145796,0.39686,0.161888
1786,-0.15585,0.471502,0.211218
1787,-0.220746,0.231742,0.312007
1788,-0.047926,0.114728,0.23688
1789,-0.025095,-0.209983,0.199599
1790,-0.273549,-0.296488,0.232944
1791,-0.180907,-0.28955,0.380136
1792,0.000984,-0.270813,0.611659
1793,-0.063837,-0.308673,0.629375
1794,-0.101718,-0.424855,0.516522
1795,-0.199022,-0.375828,0.381785
1796,0.032687,-0.152546,0.492017
1797,0.169501,-0.09356,0.429909
1798,0.271972,-0.196474,0.363934
1799,0.060682,0.354072,-0.184486
1800,0.167385,1.021259,-0.586664
1801,-0.606474,0.657882,-0.685816
1802,-0.453172,0.487585,0.006562
1803,0.128199,1.156495,0.291113
1804,-0.007912,1.252595,0.815298
1805,-0.425755,-0.490414,0.591735
1806,-0.427011,-0.491357,0.589935
1807,-0.573391,-0.305667,0.647058
1808,-0.341438,0.38933,0.668015
1809,-0.339043,0.362191,0.632217
1810,-0.009617,0.339934,0.826152
1811,0.070082,0.341551,0.369101
1812,0.094131,0.312167,0.328398
1813,0.269607,-0.089842,0.379097
1814,0.132925,-0.222992,0.28622
1815,0.024357,-0.293561,0.294387
1816,0.013757,-0.356181,0.279742
1817,0.040459,-0.257254,0.225263
1818,-0.087704,0.026301,0.290369
1819,-0.144857,0.221587,0.304367
1820,0.016335,-0.041251,0.106812
1821,0.09869,-0.104576,-0.042397
1822,0.14399,-0.233866,-0.134848
1823,0.411681,-0.207311,-0.077541
1824,0.448571,-0.083698,-0.012472
1825,0.437321,0.087599,0.112702
1826,0.457258,0.256807,-0.066511
1827,0.372072,0.355526,-0.147941
1828,0.353253,0.496525,-0.005235
1829,0.213065,0.303411,0.0707
1830,0.248549,0.252548,0.217792
1831,0.011439,-0.088246,0.42425
1832,-0.029776,-0.077979,0.084215
1833,-0.04479,0.580619,0.139132
1834,-0.23538,0.825158,0.142594
1835,-0.240623,0.825025,0.193433
1836,-0.24381,0.400798,0.119755
1837,-0.265959,0.411101,0.142912
1838,-0.283798,0.378541,0.354387
1839,-0.100525,0.166437,0.407367
1840,-0.109847,-0.156439,0.28435
1841,-0.143733,-0.296395,0.300535
1842,-0.205895,-0.370324,0.34542
1843,-0.195435,-0.429908,0.467052
1844,-0.104762,-0.433664,0.549334
1845,-0.107207,-0.40372,0.544833
1846,-0.125174,-0.437145,0.434993
1847,-0.139106,-0.443024,0.339741
1848,-0.15382,-0.416816,0.309645
1849,0.069716,0.020415,0.254954
1850,0.329198,0.150889,0.329724
1851,0.323673,0.127534,0.300481
1852,0.37339,1.39303,-0.580352
1853,-0.309346,0.211664,-0.451199
1854,-0.323882,0.224078,-0.44365
1855,-0.164315,0.91764,0.075912
1856,0.89252,2.101055,0.814371
1857,0.876522,2.091619,0.79335
1858,-0.626037,-0.506771,0.72119
1859,-0.512324,-0.633329,0.734159
1860,-0.503261,-0.479393,0.787061
1861,-0.145442,0.075667,0.562493
1862,0.070996,0.309039,0.942097
1863,0.09701,0.274504,0.903379
1864,0.267619,0.516661,0.214977
1865,-0.012902,0.100856,0.477121
1866,-0.009629,0.087505,0.445413
1867,-0.158174,-0.350943,0.411217
1868,-0.041459,-0.400858,0.324492
1869,-0.040306,-0.39322,0.223548
1870,-0.02173,-0.114269,0.205711
1871,-0.246357,0.240211,0.321597
1872,-0.126691,0.181188,0.267174
1873,-0.040555,-0.050987,-0.041325
1874,0.134424,-0.224139,-0.11757
1875,0.323977,-0.285856,-0.063903
1876,0.558229,-0.105681,-0.011928
1877,0.52937,0.07037,0.1957
1878,0.576609,0.080335,0.074527
1879,0.475259,0.283016,-0.18854
1880,0.304736,0.328194,-0.065482
1881,0.305211,0.28964,-0.010862
1882,0.189172,0.165806,0.160344
1883,0.19733,0.038414,0.271923
1884,-0.007056,-0.018856,0.325135
1885,-0.049986,0.310013,0.162041
1886,-0.227864,0.79752,0.25265
1887,-0.255011,0.867757,0.318216
1888,-0.092781,0.376534,0.160209
1889,-0.14235,0.287004,0.115317
1890,-0.184598,0.357481,0.135364
1891,-0.400491,0.330285,0.396039
1892,-0.039596,0.064983,0.311994
1893,-0.030293,0.050608,0.308596
1894,-0.105009,-0.309298,0.235888
1895,-0.187181,-0.322473,0.351698
1896,-0.1168,-0.342242,0.483976
1897,-0.047335,-0.332282,0.568161
1898,-0.07391,-0.416411,0.43856
1899,-0.176906,-0.391276,0.274876
1900,-0.152312,-0.297206,0.422404
1901,-0.039521,-0.142872,0.531077
1902,0.302118,-0.097859,0.546752
1903,0.240067,-0.156031,0.356054
1904,0.119026,0.40916,-0.233157
1905,0.2554,1.395361,-0.834741
1906,-0.499208,0.653068,-0.664701
1907,-0.471671,1.007205,-0.108227
1908,0.899892,2.672472,1.024169
1909,-0.660478,0.897181,0.599703
1910,-0.466859,-0.612634,0.747251
1911,-0.440526,-0.791893,0.754412
1912,-0.51494,-0.325926,0.872481
1913,-0.139367,0.136858,0.725738
1914,-0.123674,0.106784,0.690709
1915,0.11041,0.532554,0.194279
1916,-0.022153,0.095388,0.39908
1917,0.058463,-0.011317,0.490098
1918,0.072397,-0.147503,0.532332
1919,-0.009704,-0.394262,0.383319
1920,-0.026148,-0.444911,0.269239
1921,0.00922,-0.314707,0.163747
1922,-0.182486,0.164681,0.339456
1923,-0.259605,0.273292,0.31461
1924,-0.140947,0.187524,0.337223
1925,-0.030118,-0.123764,-0.059806
1926,0.189609,-0.250355,-0.037359
1927,0.641987,-0.013858,0.048107
1928,0.605027,0.032756,0.166957
1929,0.581139,-0.004391,0.136685
1930,0.495162,0.237435,-0.162099
1931,0.435243,0.481202,-0.075672
1932,0.337769,0.460537,-9.40E-05
1933,0.314956,0.356334,0.1639
1934,0.147139,0.110111,0.37508
1935,-0.048018,-0.110225,0.326108
1936,-0.000612,0.08646,0.034881
1937,-0.065288,0.676064,0.066199
1938,-0.250895,0.798738,0.148993
1939,-0.309396,0.707901,0.202602
1940,-0.393565,0.565692,0.19337
1941,-0.422673,0.461574,0.297602
1942,-0.425348,0.310575,0.481924
1943,-0.117925,0.097358,0.407462
1944,-0.114326,0.066037,0.396963
1945,-0.15606,-0.287198,0.294796
1946,-0.198446,-0.358142,0.38721
1947,-0.128823,-0.358973,0.472454
1948,-0.080164,-0.297731,0.48876
1949,-0.047188,-0.233061,0.336424
1950,-0.139072,-0.241014,0.249475
1951,-0.130112,-0.231558,0.297278
1952,0.015981,-0.197913,0.484033
1953,0.045437,-0.212867,0.484315
1954,0.326788,-0.172413,0.610219
1955,0.104204,0.232263,-0.017386
1956,0.083607,0.207662,-0.053718
1957,0.242918,1.156658,-0.637684
1958,-0.417024,-0.073081,-0.224728
1959,-0.413559,-0.118866,0.083047
1960,0.292491,1.55229,0.370147
1961,0.873272,2.185761,1.434748
1962,0.212791,2.912739,1.002168
1963,-0.650785,-0.444718,0.646768
1964,-0.444298,-0.478784,0.563563
1965,-0.558943,-0.276111,0.624435
1966,-0.095174,-0.088845,0.58824
1967,0.133327,0.376711,0.964358
1968,0.305985,0.346419,0.646624
1969,0.171759,0.216606,0.067363
1970,-0.135885,-0.122733,0.472185
1971,-0.076692,-0.177794,0.419412
1972,0.014822,-0.21561,0.367596
1973,0.034372,-0.28109,0.246392
1974,0.040432,-0.160692,0.225763
1975,-0.153463,0.082487,0.26164
1976,-0.298594,0.212115,0.221225
1977,-0.105578,0.12229,0.233117
1978,-0.011393,-0.037877,-0.082117
1979,0.234508,-0.276996,-0.05684
1980,0.432477,-0.232056,-0.021708
1981,0.43906,-0.084754,0.140263
1982,0.458159,0.002815,0.185076
1983,0.409568,0.138291,-0.037666
1984,0.192701,0.369486,-0.095759
1985,0.233008,0.453323,0.034114
1986,0.167235,0.377768,0.029145
1987,0.312105,0.209266,0.323876
1988,0.141981,0.00255,0.348665
1989,-0.002831,-0.122148,0.366121
1990,0.049479,0.326728,0.100406
1991,-0.135368,0.868093,0.207566
1992,-0.215425,0.914462,0.267771
1993,-0.21089,0.516601,0.18505
1994,-0.219397,0.465078,0.187062
1995,-0.301024,0.471036,0.329362
1996,-0.029294,0.117348,0.394413
1997,-0.052824,-0.016956,0.313296
1998,-0.044835,-0.197784,0.283816
1999,-0.237991,-0.415691,0.408012
2000,-0.155897,-0.431107,0.470366
2001,-0.133602,-0.419701,0.497214
2002,-0.131807,-0.415042,0.518563
2003,-0.176398,-0.380377,0.432376
2004,-0.154813,-0.387351,0.436596
2005,-0.179742,-0.295294,0.357139
2006,0.027194,-0.028253,0.38825
2007,0.188451,0.092567,0.427152
2008,0.230063,0.083441,0.449403
2009,0.294167,1.465516,-0.493593
2010,0.626786,1.654583,-0.715631
2011,-0.114623,0.275805,-0.349511
2012,-0.491479,-0.469089,-0.093757
2013,-0.529377,-0.26303,0.142734
2014,0.693855,1.680469,0.108807
2015,-0.768744,1.647268,0.305908
2016,-0.794236,-0.017239,0.660015
2017,-0.447689,-0.786094,0.872474
2018,-0.452687,-0.499437,0.802862
2019,-0.318924,-0.35876,0.598729
2020,0.142058,0.519465,0.768058
2021,0.472088,0.567559,0.4622
2022,0.004468,0.178062,0.079754
2023,-0.161317,-0.055297,0.613488
2024,-0.245551,-0.251531,0.585855
2025,-0.061786,-0.281419,0.42853
2026,-0.062772,-0.325206,0.137186
2027,0.02579,-0.119578,0.17613
2028,-0.139865,0.27853,0.251609
2029,-0.011831,0.238004,0.411117
2030,-0.088898,0.143365,0.365354
2031,0.143254,-0.194433,-0.047456
2032,0.37267,-0.345873,-0.030179
2033,0.57449,-0.213092,-0.034299
2034,0.571509,-0.098206,0.003182
2035,0.548251,0.133135,0.05779
2036,0.417749,0.274775,-0.117444
2037,0.353819,0.384465,0.021641
2038,0.363354,0.381733,0.08088
2039,0.262887,0.224748,0.124218
2040,0.267305,0.070024,0.276762
2041,-0.053689,-0.159393,0.334006
2042,-0.029261,0.092664,0.066702
2043,-0.168404,0.880826,0.15184
2044,-0.283449,0.894783,0.398584
2045,-0.271911,0.720121,0.395867
2046,-0.179586,0.503291,0.289188
2047,-0.118173,0.443492,0.229977
2048,-0.104188,0.316878,0.340818
2049,-0.114589,0.340816,0.364965
2050,-0.101358,-0.179958,0.206591
2051,-0.303351,-0.3383,0.393215
2052,-0.270309,-0.40501,0.483372
2053,-0.161704,-0.386303,0.59464
2054,-0.116029,-0.405646,0.567466
2055,-0.090897,-0.40549,0.581922
2056,-0.156803,-0.405249,0.345348
2057,-0.18166,-0.300468,0.426766
2058,-0.147013,-0.315326,0.427762
2059,0.343036,0.029868,0.595919
2060,0.193416,0.00892,0.49358
2061,-0.022886,0.324097,0.202649
2062,0.567046,1.7211,-0.681259
2063,-0.370039,0.022399,-0.490561
2064,-0.746763,-0.267284,-0.486566
2065,-0.275604,0.273784,-0.002884
2066,1.079782,2.030907,0.801991
2067,1.060683,2.023959,0.783671
2068,-0.632636,-0.005645,0.640225
2069,-0.471967,-0.648072,0.753213
2070,-0.462319,-0.577521,0.792237
2071,-0.042349,-0.011538,0.639322
2072,0.238969,0.06541,0.747556
2073,0.251191,0.458648,0.87481
2074,0.062975,0.385706,0.042704
2075,-0.009493,0.17024,0.276549
2076,-0.164775,-0.161521,0.421428
2077,-0.12854,-0.309955,0.45691
2078,-0.046072,-0.404642,0.348246
2079,-0.039505,-0.422269,0.260764
2080,-0.083556,-0.032824,0.391319
2081,-0.093872,0.236226,0.385986
2082,-0.151928,0.311926,0.36651
2083,-0.044232,0.060013,0.093914
2084,0.088315,-0.121358,-0.112213
2085,0.195991,-0.262857,-0.071226
2086,0.496151,-0.12268,0.035971
2087,0.510904,0.059776,0.168005
2088,0.549975,0.047066,0.199315
2089,0.501339,0.148987,-0.049637
2090,0.381911,0.358099,-0.029795
2091,0.404363,0.440402,0.04702
2092,0.301393,0.322325,0.136985
2093,0.083696,0.082076,0.427199
2094,0.061456,0.095271,0.458935
2095,-0.09885,-0.037696,0.144666
2096,-0.090295,0.508838,0.075469
2097,-0.165556,0.802202,0.104189
2098,-0.234077,0.754949,0.252903
2099,-0.191339,0.527331,0.175444
2100,-0.219391,0.473032,0.226278
2101,-0.246259,0.391602,0.415437
2102,-0.030147,0.164293,0.435453
2103,0.01545,0.018199,0.353682
2104,-0.072172,-0.264993,0.320883
2105,-0.191179,-0.385584,0.518866
2106,-0.139982,-0.391582,0.55579
2107,-0.079786,-0.406601,0.569282
2108,-0.131837,-0.310064,0.420305
2109,-0.134514,-0.281266,0.379821
2110,-0.177529,-0.300884,0.367239
2111,-0.081503,-0.238209,0.454703
2112,0.000811,-0.185166,0.506798
2113,0.318912,-0.045598,0.667502
2114,0.034251,0.214264,0.147953
2115,0.072066,0.706246,-0.232263
2116,0.272289,1.33482,-0.567159
2117,-0.237861,0.376243,-0.482454
2118,-0.550632,-0.161151,-0.341296
2119,0.766957,1.68492,0.401254
2120,0.35597,1.938603,0.907163
2121,-0.437935,1.155554,0.679318
2122,-0.644668,-0.610054,0.76156
2123,-0.472078,-0.589386,0.757545
2124,-0.468857,-0.270081,0.726022
2125,0.047387,0.066804,0.643663
2126,0.242473,0.330199,0.913124
2127,0.39235,0.562242,0.353601
2128,0.1118,0.18523,0.201271
2129,-0.075842,0.102925,0.469423
2130,-0.269002,-0.218244,0.438294
2131,-0.160491,-0.348636,0.379013
2132,-0.125773,-0.378395,0.275723
2133,-0.159281,-0.364031,0.210567
2134,-0.041187,0.128282,0.420802
2135,-0.11793,0.279883,0.35121
2136,-0.15016,0.265704,0.345509
2137,-0.028371,-0.036922,-0.061151
2138,0.314869,-0.289358,0.017723
2139,0.438936,-0.224481,0.020789
2140,0.472536,0.003543,0.279566
2141,0.516834,0.092507,0.135218
2142,0.526521,0.08889,0.126902
2143,0.329692,0.491337,-0.048296
2144,0.39462,0.431296,0.066015
2145,0.392444,0.433458,0.075644
2146,0.262471,0.103976,0.288292
2147,0.018024,-0.106576,0.353713
2148,-0.063458,-0.171427,0.274565
2149,-0.028602,0.09148,0.096439
2150,-0.101902,0.665439,0.167423
2151,-0.170411,0.747941,0.256361
2152,-0.129316,0.591112,0.261854
2153,-0.233502,0.437622,0.165909
2154,-0.237289,0.512105,0.266698
2155,-0.347784,0.388066,0.482854
2156,-0.069956,0.02145,0.384271
2157,-0.05988,-0.080565,0.365141
2158,-0.117152,-0.392995,0.359267
2159,-0.112665,-0.355121,0.45819
2160,-0.070804,-0.297543,0.497362
2161,-0.045679,-0.297479,0.411625
2162,-0.101924,-0.263795,0.400255
2163,-0.123444,-0.271931,0.403881
2164,-0.146573,-0.243102,0.456275
2165,-0.086692,-0.253022,0.496604
2166,0.191452,0.027586,0.533405
2167,0.245851,0.01606,0.419119
2168,0.239156,0.547458,-0.132872
2169,0.803937,1.695097,-0.872196
2170,-0.076892,0.530338,-0.462501
2171,-0.484032,-0.381369,-0.14511
2172,-0.326505,0.008835,0.198041
2173,0.587321,1.49058,0.334731
2174,0.494482,2.520824,0.901117
2175,-0.385842,1.31768,0.422291
2176,-0.669659,-0.618746,0.739987
2177,-0.512813,-0.513788,0.707357
2178,-0.434277,-0.186588,0.672916
2179,0.173646,0.124776,0.808577
2180,0.285756,0.466231,0.966791
2181,0.403095,0.623646,0.208642
2182,-0.124473,0.028273,0.455361
2183,-0.197029,-0.12083,0.448484
2184,-0.155706,-0.209789,0.447747
2185,-0.102042,-0.259747,0.449158
2186,-0.020698,-0.227136,0.267486
2187,0.019969,-0.113377,0.310168
2188,-0.059297,0.16839,0.401632
2189,0.0005,0.093685,0.421052
2190,-0.027683,-0.02875,0.349902
2191,0.215925,-0.146835,-0.11977
2192,0.33126,-0.278543,-0.103128
2193,0.44685,-0.238812,-0.091309
2194,0.606436,0.035299,0.077077
2195,0.486736,0.087155,0.206919
2196,0.499446,0.083646,0.202571
2197,0.363019,0.382643,-0.115329
2198,0.3359,0.466874,0.062121
2199,0.263496,0.339055,0.148767
2200,0.299257,0.147323,0.340047
2201,-0.044527,-0.188303,0.387212
2202,-0.083198,-0.16337,0.246478
2203,-0.038394,0.385285,0.159644
2204,-0.153526,0.80522,0.273624
2205,-0.163457,0.711661,0.297345
2206,-0.143334,0.361876,0.150984
2207,-0.178608,0.440605,0.219378
2208,-0.242686,0.480399,0.344778
2209,0.0446,0.245348,0.431388
2210,0.055173,0.181941,0.417071
2211,0.041514,-0.059211,0.337481
2212,-0.192884,-0.422062,0.513629
2213,-0.178125,-0.404067,0.554525
2214,-0.157854,-0.37828,0.56549
2215,-0.024353,-0.31392,0.441678
2216,-0.060055,-0.258786,0.312104
2217,-0.115258,-0.271976,0.314591
2218,-0.101504,-0.314191,0.43752
2219,0.039237,-0.256536,0.573215
2220,0.386333,0.033039,0.686935
2221,0.380028,0.04841,0.499386
2222,0.36745,0.586505,-0.120533
2223,0.845645,1.642425,-0.904381
2224,-0.178097,0.409623,-0.405194
2225,-0.532849,-0.275667,-0.191392
2226,-0.484578,0.235791,0.120355
2227,1.21095,2.253887,0.765782
2228,-0.350832,2.037299,0.560197
2229,-0.712986,-0.538179,0.666612
2230,-0.618459,-0.839363,0.721274
2231,-0.595476,-0.30731,0.728904
2232,-0.279232,-0.120872,0.625038
2233,0.244804,0.269441,0.81204
2234,0.542502,0.687826,0.346895
2235,0.569787,0.654246,0.299309
2236,0.112867,-0.003886,0.372538
2237,-0.080966,-0.327598,0.461604
2238,-0.049401,-0.3935,0.471918
2239,-0.039103,-0.40606,0.408342
2240,0.073547,-0.224823,0.265801
2241,0.071031,-0.026373,0.361832
2242,-0.098963,0.256284,0.376926
2243,0.032491,0.099019,0.301986
2244,0.010472,-0.038074,0.187562
2245,0.005474,-0.063056,-0.097915
2246,0.299348,-0.198317,0.0164
2247,0.423188,-0.105376,0.083104
2248,0.442504,0.058965,0.270729
2249,0.489363,0.077603,0.141392
2250,0.428765,0.172845,-0.005143
2251,0.28635,0.442844,0.049515
2252,0.291585,0.439553,0.051155
2253,0.272509,0.417815,0.063557
2254,0.306641,0.272906,0.339224
2255,0.120157,0.074737,0.404097
2256,-0.09816,-0.143423,0.334382
2257,-0.041406,0.619374,0.180847
2258,-0.137267,0.726956,0.242621
2259,-0.170194,0.70216,0.280298
2260,-0.126779,0.420297,0.16595
2261,-0.219511,0.419164,0.178425
2262,-0.252706,0.443979,0.30218
2263,-0.146655,0.180527,0.443226
2264,-0.035407,0.119157,0.436473
2265,-0.016324,-0.166063,0.3919
2266,-0.157356,-0.350994,0.386112
2267,-0.126013,-0.382256,0.420807
2268,-0.032606,-0.352687,0.468555
2269,-0.026708,-0.304061,0.401018
2270,-0.07329,-0.253972,0.358314
2271,-0.108253,-0.265676,0.37376
2272,-0.074957,-0.319737,0.441142
2273,-0.017396,-0.177635,0.515332
2274,0.222927,-0.054045,0.523726
2275,0.181949,-0.074928,0.339592
2276,0.167523,0.613145,-0.196329
2277,0.784733,1.693386,-0.841776
2278,-0.119282,0.363829,-0.468913
2279,-0.365866,-0.393192,-0.031394
2280,-0.541345,-0.377364,0.110606
2281,0.405678,1.250703,0.379897
2282,0.618316,3.169918,1.06338
2283,-0.686628,0.149329,0.468659
2284,-0.523691,-0.535821,0.68309
2285,-0.487988,-0.270566,0.647001
2286,-0.50715,-0.144446,0.588192
2287,-0.158038,-0.054587,0.677827
2288,0.333499,0.396908,0.798204
2289,0.505314,0.448153,0.440849
2290,0.00724,0.075384,0.536704
2291,-0.16347,-0.104221,0.575341
2292,-0.156966,-0.225707,0.514907
2293,-0.052563,-0.279099,0.426112
2294,0.100784,-0.188391,0.226783
2295,0.160214,-0.111584,0.207677
2296,-0.116965,0.092347,0.293807
2297,0.061183,0.073085,0.347172
2298,-0.03473,0.015709,0.221743
2299,0.022875,-0.068576,-0.106977
2300,0.287779,-0.23728,-0.068509
2301,0.40357,-0.155336,-0.032956
2302,0.471265,0.051224,0.100807
2303,0.432094,0.177579,-0.051896
2304,0.358577,0.254621,-0.156906
2305,0.368904,0.474998,0.049857
2306,0.287803,0.398016,0.106221
2307,0.245733,0.299493,0.142188
2308,0.005009,-0.110665,0.424779
2309,-0.08289,-0.136335,0.32206
2310,-0.069214,-0.046777,0.173218
2311,-0.029493,0.756624,0.242417
2312,-0.097631,0.794856,0.295232
2313,-0.173341,0.622937,0.275806
2314,-0.268817,0.480195,0.136191
2315,-0.320457,0.553797,0.238175
2316,-0.349344,0.588345,0.37617
2317,-0.069149,0.238963,0.432465
2318,-0.088052,0.084514,0.404695
2319,-0.153697,-0.264325,0.352527
2320,-0.228759,-0.385716,0.394102
2321,-0.160218,-0.329914,0.417601
2322,-0.079409,-0.310848,0.479597
2323,-0.030719,-0.273442,0.469404
2324,-0.089807,-0.28251,0.453654
2325,-0.104224,-0.269321,0.483003
2326,-0.089838,-0.25672,0.492682
2327,0.08063,-0.018662,0.533741
2328,0.212008,0.021231,0.524082
2329,0.123708,0.361521,0.111786
2330,0.499278,1.403449,-0.53943
2331,0.452548,1.558358,-0.761021
2332,-0.404496,-0.085452,-0.345123
2333,-0.07969,0.42696,-0.045313
2334,-0.064934,0.432815,-0.031902
2335,0.237421,1.504999,0.956538
2336,-0.5514,0.119516,0.613325
2337,-0.55908,0.119287,0.608835
2338,-0.557902,-0.455812,0.634544
2339,-0.611104,-0.086244,0.752168
2340,-0.323394,0.070538,0.679001
2341,0.298266,0.266522,0.86917
2342,0.236885,0.555116,0.467806
2343,0.2032,0.476324,0.303379
2344,0.086628,0.109633,0.461918
2345,-0.065112,-0.172012,0.326955
2346,-0.081316,-0.188415,0.350371
2347,-0.049463,-0.228682,0.316653
2348,0.022902,-0.310639,0.350411
2349,0.014746,-0.153948,0.399379
2350,-0.21562,0.274064,0.445291
2351,-0.236083,0.24868,0.37154
2352,-0.151476,0.185078,0.18826
2353,-0.040741,0.04687,-0.11583
2354,-0.03414,-0.111909,-0.00929
2355,0.209993,-0.142644,0.211723
2356,0.33776,-0.034028,0.236347
2357,0.47479,-0.001839,0.187075
2358,0.468441,0.140833,0.053845
2359,0.334268,0.347882,-0.014565
2360,0.364796,0.385391,0.08339
2361,0.41922,0.285636,0.071857
2362,0.350001,0.219771,0.069199
2363,0.211665,0.228681,0.284387
2364,-0.037342,0.029487,0.395374
2365,-0.146526,-0.069118,0.261922
2366,-0.092043,0.28338,0.091941
2367,-0.177571,0.76547,0.231928
2368,-0.303897,0.527408,0.229255
2369,-0.318878,0.545278,0.222567
2370,-0.379232,0.571192,0.221227
2371,-0.321704,0.456899,0.366334
2372,-0.271932,0.294805,0.474604
2373,-0.081649,0.162061,0.415081
2374,-0.115794,-0.161481,0.368551
2375,-0.150558,-0.235422,0.33499
2376,-0.144676,-0.239346,0.3704
2377,-0.09912,-0.276198,0.390322
2378,-0.066787,-0.210393,0.372094
2379,-0.129222,-0.179183,0.330004
2380,-0.208729,-0.139895,0.398886
2381,-0.192812,-0.19491,0.481282
2382,-0.115099,-0.210721,0.534432
2383,-0.020209,-0.118153,0.531133
2384,0.194905,-0.042203,0.366813
2385,0.165028,0.040791,0.104719
2386,0.293997,0.799855,-0.395894
2387,0.140891,0.767905,-0.487286
2388,-0.105961,0.144699,-0.292381
2389,-0.375974,-0.22295,-0.03159
2390,0.532953,1.553033,0.604566
2391,0.850509,2.245071,1.095667
2392,-0.514379,1.268563,0.465036
2393,-0.797771,-0.554515,0.561427
2394,-0.672313,-0.53706,0.545171
2395,-0.650885,0.067046,0.645356
2396,0.114242,0.232441,0.718549
2397,0.293222,0.346806,1.087571
2398,0.349227,0.487208,0.393423
2399,0.233997,0.365002,0.193365
2400,-0.12404,0.050068,0.454023
2401,-0.183169,-0.193551,0.395837
2402,-0.178396,-0.286312,0.442985
2403,-0.102308,-0.295987,0.370242
2404,-0.096681,-0.228744,0.404389
2405,-0.096412,0.046025,0.538152
2406,-0.26612,0.127322,0.3384
2407,-0.063432,0.144661,0.168982
2408,-0.06854,0.149685,-0.018016
2409,0.026345,-0.132184,-0.062456
2410,0.328174,-0.176583,0.081228
2411,0.365932,-0.031733,0.169937
2412,0.409671,-0.027809,0.16983
2413,0.419922,0.25951,-0.084531
2414,0.288849,0.478031,-0.154057
2415,0.290716,0.510825,-0.038483
2416,0.270227,0.351404,0.093106
2417,0.355514,0.342665,0.20637
2418,0.217145,0.256307,0.376676
2419,-0.151847,-0.128964,0.287196
2420,-0.047692,0.161915,0.039425
2421,-0.039316,0.522031,0.11861
2422,-0.234122,0.786394,0.205707
2423,-0.251605,0.581939,0.235409
2424,-0.217844,0.526865,0.192032
2425,-0.273862,0.497542,0.264345
2426,-0.27844,0.444138,0.459563
2427,-0.217987,0.330751,0.49953
2428,-0.193198,-0.034772,0.47358
2429,-0.28603,-0.27695,0.467849
2430,-0.254206,-0.388576,0.465262
2431,-0.190344,-0.286066,0.41713
2432,-0.147775,-0.173519,0.412821
2433,-0.118704,-0.117169,0.308585
2434,-0.177862,-0.125628,0.368664
2435,-0.22963,-0.111149,0.48104
2436,-0.181736,-0.215605,0.540973
2437,0.025964,-0.174037,0.688776
2438,0.202855,-0.023043,0.631372
2439,0.115874,0.04379,0.31134
2440,0.136312,0.579064,-0.324452
2441,0.636926,1.626221,-0.879391
2442,-0.160781,0.489734,-0.434354
2443,-0.404323,-0.152583,-0.227759
2444,0.502828,1.495321,0.408937
2445,0.667749,1.799875,0.717869
2446,-0.4407,1.045815,0.661175
2447,-0.723249,-0.549666,0.681254
2448,-0.617707,-0.568781,0.676426
2449,-0.66357,-0.361752,0.758514
2450,0.099685,0.316238,0.654123
2451,0.117869,0.284761,0.627176
2452,0.346913,0.5212,0.783864
2453,0.048194,0.232033,0.327298
2454,-0.040453,0.089617,0.394794
2455,-0.228169,-0.05396,0.355406
2456,-0.20026,-0.219657,0.404889
2457,-0.14969,-0.220297,0.348081
2458,-0.061611,-0.261795,0.338711
2459,-0.051233,-0.091121,0.412387
2460,-0.16614,0.225569,0.439757
2461,-0.196279,0.189307,0.364331
2462,-0.062637,0.026771,-0.050389
2463,0.020988,-0.055895,-0.092663
2464,0.11695,-0.229019,0.013552
2465,0.273237,-0.025044,0.132889
2466,0.342135,0.09214,0.205353
2467,0.443343,0.129272,0.07336
2468,0.395279,0.228534,-0.059245
2469,0.306666,0.344921,-0.096603
2470,0.315419,0.516681,0.050669
2471,0.217234,0.377792,0.084936
2472,0.277154,0.362555,0.20724
2473,-0.061836,-0.044959,0.419029
2474,-0.15662,-0.113593,0.197166
2475,-0.099661,0.049523,0.095681
2476,-0.166591,0.779588,0.199443
2477,-0.237311,0.657472,0.215834
2478,-0.26846,0.586277,0.236787
2479,-0.397376,0.497251,0.186759
2480,-0.401516,0.434268,0.45301
2481,-0.418186,0.462404,0.477003
2482,-0.119272,0.11335,0.373215
2483,-0.107291,-0.20605,0.33313
2484,-0.242184,-0.267018,0.425488
2485,-0.194064,-0.366778,0.50174
2486,-0.16527,-0.354117,0.490613
2487,-0.149209,-0.327703,0.442767
2488,-0.181594,-0.219931,0.341644
2489,-0.224118,-0.167073,0.316517
2490,-0.245981,-0.133059,0.351403
2491,-0.131031,-0.112426,0.438381
2492,0.200392,0.06452,0.631392
2493,0.213384,-0.036873,0.614969
2494,0.068768,0.215808,0.154998
2495,0.872024,1.294395,-0.590141
2496,0.464662,1.066625,-0.440797
2497,-0.283999,-0.123726,-0.432293
2498,-0.230739,0.612333,0.111089
2499,0.315319,1.430724,0.115318
2500,0.535851,2.325459,1.071313
2501,-0.867153,-0.287736,0.709467
2502,-0.811724,-0.536796,0.815333
2503,-0.69624,-0.490588,0.802226
2504,-0.415688,-0.039511,0.700494
2505,0.234504,0.331162,0.775008
2506,0.37004,0.719814,0.867207
2507,0.396442,0.690633,0.485121
2508,-0.065206,0.122859,0.469139
2509,-0.255449,0.034525,0.472222
2510,-0.226218,-0.24193,0.458745
2511,-0.161871,-0.253555,0.403623
2512,-0.064749,-0.254677,0.30462
2513,-0.028966,-0.048129,0.407112
2514,-0.109586,0.215493,0.485309
2515,-0.191215,0.255617,0.389494
2516,-0.073667,0.092432,0.218965
2517,0.062131,-0.02453,-0.097337
2518,0.203557,-0.307589,-0.029004
2519,0.300354,-0.234846,0.000689
2520,0.359553,-0.094492,0.061671
2521,0.404811,0.041494,0.232478
2522,0.417945,0.126666,0.019621
2523,0.35318,0.239366,-0.110786
2524,0.255072,0.498205,0.035942
2525,0.268748,0.433954,0.077646
2526,0.224556,0.366024,0.067467
2527,0.171573,0.166465,0.418442
2528,-0.197312,-0.122561,0.286637
2529,-0.215479,-0.101938,0.330793
2530,-0.168545,0.718581,0.216065
2531,-0.207589,0.743268,0.265911
2532,-0.216177,0.648047,0.248574
2533,-0.157069,0.512105,0.175537
2534,-0.220127,0.470579,0.178944
2535,-0.283281,0.513634,0.341219
2536,-0.085013,0.254912,0.368008
2537,-0.101624,-0.066352,0.350583
2538,-0.100457,-0.210698,0.386458
2539,-0.221537,-0.35488,0.484459
2540,-0.173925,-0.319947,0.527319
2541,-0.11877,-0.278438,0.540053
2542,-0.042544,-0.259239,0.489932
2543,-0.072116,-0.22119,0.391341
2544,-0.061275,-0.227361,0.4028
2545,-0.111325,-0.250134,0.524675
2546,-0.041503,-0.129575,0.708723
2547,0.091121,0.029212,0.696986
2548,0.09732,0.546224,0.094347
2549,0.217888,1.016184,-0.284727
2550,0.612096,1.838817,-0.768003
2551,-0.157075,0.210968,-0.3502
2552,-0.27285,-0.234104,-0.201262
2553,-0.297138,-0.518879,0.28273
2554,-0.197751,0.666574,0.098765
2555,1.615459,3.233718,1.44915
2556,-0.002783,2.9873,0.487421
2557,-0.923409,-0.409215,0.688927
2558,-0.508275,-0.525829,0.647039
2559,-0.640923,-0.343695,0.624844
2560,-0.086555,0.078585,0.76486
2561,0.175977,0.594785,1.176273
2562,0.41392,0.404926,0.400031
2563,-0.019527,0.097516,0.412289
2564,-0.20812,0.103256,0.587168
2565,-0.247537,-0.19715,0.516322
2566,-0.134951,-0.246705,0.498085
2567,-0.028493,-0.198278,0.340391
2568,0.076995,-0.043121,0.382655
2569,-0.195793,0.176685,0.478753
2570,-0.204214,0.182679,0.378307
2571,-0.150909,0.150443,0.324388
2572,-0.048535,0.05954,-0.063592
2573,0.170527,-0.26052,0.03976
2574,0.290936,-0.205583,0.076555
2575,0.484056,0.021839,0.248837
2576,0.494962,-0.071072,0.183956
2577,0.471178,-0.015934,0.057443
2578,0.338812,0.243147,-0.069478
2579,0.22763,0.388084,0.089038
2580,0.183483,0.357691,0.068268
2581,0.052348,0.292277,0.023218
2582,0.091256,0.205602,0.29192
2583,0.041457,0.110847,0.411312
2584,-0.143369,-0.036114,0.276283
2585,-0.143818,0.473767,0.173753
2586,-0.221268,0.670057,0.235822
2587,-0.266727,0.669352,0.30643
2588,-0.180489,0.529679,0.196669
2589,-0.243355,0.457015,0.156406
2590,-0.245624,0.453343,0.262823
2591,-0.293465,0.244022,0.400233
2592,-0.089485,0.102137,0.334218
2593,-0.078105,-0.299191,0.271908
2594,-0.145657,-0.272221,0.324361
2595,-0.145973,-0.278651,0.370172
2596,-0.095436,-0.255093,0.409193
2597,-0.097959,-0.23387,0.438255
2598,-0.093785,-0.183806,0.41692
2599,-0.245953,-0.214989,0.485477
2600,-0.230291,-0.232664,0.531737
2601,-0.185856,-0.281809,0.658059
2602,-0.036289,-0.115147,0.688377
2603,0.165793,0.036121,0.651371
2604,0.135312,0.418738,0.0028
2605,0.874179,1.783806,-0.712895
2606,0.160976,1.353008,-0.418089
2607,-0.175825,0.138649,-0.426364
2608,-0.376023,-0.287042,0.026201
2609,-0.083027,0.57267,0.220107
2610,0.967208,1.862712,0.885225
2611,-0.200009,1.747446,0.515839
2612,-0.791078,-0.266212,0.590083
2613,-0.718229,-0.39613,0.671056
2614,-0.581306,-0.195255,0.725061
2615,-0.262947,-0.016871,0.738633
2616,0.051147,0.019922,0.795891
2617,0.156847,0.532431,0.82386
2618,0.057398,0.339153,0.21522
2619,-0.096422,0.148129,0.487578
2620,-0.257218,0.090608,0.453814
2621,-0.122741,-0.180397,0.511269
2622,-0.092284,-0.216028,0.463195
2623,-0.02824,-0.258194,0.377593
2624,-0.049482,-0.07653,0.425887
2625,-0.057424,0.179366,0.504846
2626,-0.209511,0.272405,0.47278
2627,-0.176086,0.21084,0.312325
2628,-0.166382,0.121655,-0.127454
2629,-0.112315,-0.028287,-0.083408
2630,0.118597,-0.067297,0.139854
2631,0.208167,0.015421,0.19843
2632,0.359973,0.003008,0.264661
2633,0.461487,-0.001055,0.062708
2634,0.399606,0.116661,-0.037119
2635,0.243118,0.337785,-0.023772
2636,0.316027,0.231139,0.073705
2637,0.392287,0.243221,0.06426
2638,0.213539,0.16145,0.264458
2639,0.14337,0.12386,0.362638
2640,-0.014861,0.042767,0.415372
2641,-0.211571,-0.105621,0.129542
2642,-0.187734,0.178968,0.105629
2643,-0.245271,0.796582,0.291135
2644,-0.26373,0.693743,0.302569
2645,-0.242553,0.635358,0.285697
2646,-0.253436,0.472999,0.19338
2647,-0.311513,0.342984,0.369677
2648,-0.121899,0.156768,0.321144
2649,-0.057125,0.113105,0.325181
2650,-0.075888,-0.160848,0.314736
2651,-0.182909,-0.199119,0.364491
2652,-0.208479,-0.193709,0.411809
2653,-0.18034,-0.202824,0.423317
2654,-0.143044,-0.187558,0.41802
2655,-0.173492,-0.15586,0.393937
2656,-0.174538,-0.153784,0.409728
2657,-0.162198,-0.266755,0.487237
2658,-0.178774,-0.326425,0.627215
2659,-0.12588,-0.149422,0.622641
2660,-0.01406,-0.006624,0.586433
2661,0.043206,0.415587,0.112684
2662,0.619449,1.400545,-0.361597
2663,0.466283,1.318498,-0.427684
2664,-0.362324,-0.114752,-0.393157
2665,-0.347226,0.435639,-0.154483
2666,0.475993,1.881737,0.112853
2667,0.969787,2.206184,0.86702
2668,-0.867416,-0.104039,0.609495
2669,-0.626949,-0.672227,0.759346
2670,-0.54855,-0.668944,0.744344
2671,-0.533065,-0.230762,0.875718
2672,0.083594,0.212033,0.675488
2673,0.349316,0.345873,0.782479
2674,0.228122,0.765331,0.329622
2675,-0.204343,0.243274,0.292125
2676,-0.263621,0.223506,0.444867
2677,-0.247443,-0.146904,0.534679
2678,-0.198489,-0.243184,0.566072
2679,-0.101478,-0.232969,0.410167
2680,-0.086594,-0.156316,0.406585
2681,-0.067821,0.204736,0.417291
2682,-0.206875,0.262309,0.331546
2683,-0.155684,0.179114,0.372015
2684,-0.132475,0.026093,-0.047945
2685,-0.061672,-0.11213,-0.074319
2686,0.107801,-0.176182,0.011252
2687,0.294567,-0.016563,0.120401
2688,0.360603,0.023634,0.224277
2689,0.414831,-0.077838,0.137066
2690,0.39738,-0.033342,0.033029
2691,0.142162,0.284458,-0.042705
2692,0.007259,0.372179,0.109025
2693,-0.044678,0.364994,0.054575
2694,0.035775,0.323069,0.198937
2695,0.158324,0.208132,0.402614
2696,-0.171786,-0.018793,0.325909
2697,-0.193994,0.053954,0.255922
2698,-0.201729,0.530865,0.267643
2699,-0.364548,0.774644,0.316349
2700,-0.379916,0.734278,0.303662
2701,-0.294491,0.505871,0.215113
2702,-0.346201,0.536219,0.277238
2703,-0.388366,0.429487,0.37616
2704,-0.175496,0.128222,0.309495
2705,-0.180247,0.020162,0.294693
2706,-0.258467,-0.214136,0.313747
2707,-0.219639,-0.238481,0.381572
2708,-0.214835,-0.220282,0.424748
2709,-0.125477,-0.122286,0.364492
2710,-0.097136,-0.011371,0.245794
2711,-0.203293,0.00182,0.241792
2712,-0.28422,-0.053656,0.416648
2713,-0.145869,-0.242172,0.723076
2714,-0.087089,-0.149581,0.741928
2715,-0.020811,-0.071257,0.703595
2716,0.009259,0.096479,0.337101
2717,0.225763,0.687338,-0.243709
2718,0.45043,1.120019,-0.485974
2719,0.200075,0.556187,-0.196842
2720,-0.281177,-0.197989,-0.154599
2721,-0.289078,-0.148044,-0.024002
2722,0.351377,1.215081,-0.01381
2723,0.619665,1.963986,1.122689
2724,-0.302103,1.69606,0.871404
2725,-0.868039,-0.17509,0.571662
2726,-0.517411,-0.287165,0.525739
2727,-0.493504,-0.181741,0.544016
2728,-0.128802,-0.088461,0.593725
2729,0.085197,0.002122,0.6612
2730,0.272397,0.515526,0.759692
2731,0.133572,0.523547,0.42556
2732,-0.219262,0.195583,0.471679
2733,-0.441292,0.124533,0.407929
2734,-0.254765,0.003258,0.356452
2735,0.019046,0.06269,0.347203
2736,0.069554,0.035715,0.386894
2737,0.009948,-0.026777,0.493897
2738,-0.068004,0.18111,0.476816
2739,-0.096264,0.204209,0.476741
2740,-0.221589,0.121916,0.42522
2741,-0.17298,0.062382,0.156456
2742,-0.104827,0.039572,0.122668
2743,-0.052216,0.00486,0.141258
