,userAcceleration.x,userAcceleration.y,userAcceleration.z
0,0.458429,0.503363,-0.488883
1,0.583394,0.532045,-0.537409
2,0.288787,0.588884,-0.631244
3,0.159866,0.46283,-0.402567
4,0.094594,0.334832,-0.22943
5,0.106526,0.224316,0.16753
6,-0.092694,0.601027,0.374632
7,-0.26217,0.631146,0.455067
8,-0.659463,0.61718,0.142673
9,-0.466566,0.775982,0.090803
10,-0.365529,0.77071,0.112389
11,0.091104,0.504895,0.004252
12,0.569079,0.399359,0.131273
13,0.67697,0.288003,0.15635
14,0.428422,-0.226911,0.133804
15,0.130351,-0.642152,0.536907
16,0.022296,-0.849921,0.627663
17,0.070783,-1.035621,0.664456
18,0.18588,-0.978641,0.473062
19,0.179198,-0.906585,0.446466
20,0.195995,-0.808063,0.358416
21,0.123659,-0.770133,0.202381
22,0.084126,-0.789487,0.067783
23,0.097523,-0.554927,-0.248289
24,-0.241411,0.768818,-0.872165
25,-0.368684,1.873152,-1.289193
26,-0.545686,2.456574,-1.233011
27,-0.279243,-0.90648,-0.483041
28,-0.222026,-1.057189,-0.129043
29,-0.137889,-0.205409,0.888102
30,-0.13075,1.208378,0.347205
31,-0.0221,1.213032,0.091412
32,0.673132,0.268434,0.73275
33,0.359954,-0.136192,0.545691
34,0.360731,0.179553,0.082009
35,0.554598,0.783028,0.029747
36,0.370875,0.260869,0.2371
37,0.236351,0.007869,0.148132
38,0.146069,-0.155567,0.185175
39,0.174613,-0.18697,0.138591
40,0.030405,-0.345797,-0.089828
41,0.043376,-0.505522,0.065361
42,0.022917,-0.516362,0.068499
43,-0.006727,-0.549463,0.140501
44,-0.117215,-0.489763,0.241238
45,-0.112639,-0.35356,-0.074274
46,0.24153,-0.013328,-0.239625
47,0.447846,0.474105,-1.091164
48,0.772198,0.507134,-0.297803
49,0.123102,0.609938,-0.731323
50,0.409582,0.514971,-0.508053
51,0.706345,0.383058,-0.394727
52,0.88033,0.459977,-0.386097
53,0.308661,0.471671,-0.469813
54,0.085696,0.318438,-0.481182
55,0.110129,0.236784,-0.237521
56,0.085305,0.018722,-0.044573
57,0.165782,0.23239,0.17322
58,0.085012,0.529041,0.173966
59,-0.168098,0.618024,0.469564
60,-0.557762,0.627109,0.274315
61,-0.580297,0.793124,0.108325
62,-0.303814,0.761337,0.069269
63,0.292009,0.482002,0.061173
64,0.436427,0.360389,0.234251
65,0.652818,0.198407,0.190393
66,0.414948,-0.378085,0.231219
67,0.288277,-0.579885,0.481727
68,0.16357,-0.837718,0.599155
69,0.172173,-0.982865,0.582086
70,0.202113,-0.972784,0.508909
71,0.202647,-0.902811,0.430931
72,0.251695,-0.901543,0.360165
73,0.181038,-0.846794,0.32877
74,-0.057993,-0.729817,0.065227
75,-0.133342,-0.340906,-0.193517
76,-0.244735,0.008959,-0.421291
77,-0.383039,2.914554,-1.397177
78,-0.915445,0.796004,-1.248289
79,-0.684051,-0.295145,-0.771477
80,-0.507245,-0.80266,-0.163422
81,0.296631,2.56109,0.605133
82,0.401034,2.37801,0.235721
83,0.215618,-1.548626,1.02852
84,0.540105,-1.331933,0.882346
85,0.491819,0.587629,0.182379
86,0.624181,1.343883,-0.032002
87,0.681175,0.94874,0.244721
88,0.351262,0.430246,-0.183677
89,0.166632,0.274347,-0.063265
90,-0.056315,-0.460181,0.061114
91,-0.065714,-0.708893,-0.052276
92,0.002768,-0.517318,-0.095319
93,0.151131,-0.457762,0.106112
94,0.140391,-0.274992,0.022649
95,0.036394,-0.247101,-0.257493
96,0.234452,-0.375835,-0.316108
97,0.413171,-0.364633,-0.210696
98,0.382496,-0.241388,-0.092771
99,0.211493,0.178584,-0.361775
100,0.191031,0.542476,-0.931306
101,0.394035,0.284548,-0.7155
102,0.27425,0.380665,-0.443328
103,0.565508,0.374569,-0.292642
104,0.423299,0.481532,-0.342736
105,0.238924,0.561832,-0.41194
106,0.181778,0.352617,-0.363473
107,0.099094,0.301758,-0.194808
108,0.182257,0.34199,-0.00195
109,0.186031,0.511864,0.131793
110,-0.018125,0.691154,0.543428
111,-0.398993,0.747912,0.387214
112,-0.608335,0.778819,0.114033
113,-0.346707,0.662257,0.030214
114,-0.100036,0.534988,0.189915
115,0.219415,0.413273,0.457183
116,0.463786,0.196213,0.423783
117,0.408217,-0.29679,-0.058324
118,0.171597,-0.579188,0.371834
119,0.175618,-0.680472,0.629678
120,0.255911,-0.862792,0.542582
121,0.199774,-0.823735,0.493301
122,0.255359,-0.739951,0.437039
123,0.17083,-0.728173,0.454828
124,0.067571,-0.823722,0.425286
125,0.041204,-0.766194,0.298593
126,-0.011354,-0.709317,0.079586
127,-0.057356,-0.53346,-0.181141
128,-0.168313,0.361632,-0.66767
129,-0.035908,2.817722,-1.406129
130,-0.760102,1.494519,-1.526724
131,-0.320094,-0.655203,-0.777511
132,-0.187243,-0.86742,-0.174664
133,-0.081255,0.194567,0.460563
134,0.290493,0.670133,0.803283
135,0.175631,1.245628,0.437524
136,0.546467,-0.228642,0.233404
137,0.24961,-0.565932,0.931867
138,0.095505,-0.447998,0.491229
139,0.496857,0.569343,0.38708
140,0.486759,0.559178,0.361011
141,0.247931,-0.154046,0.196531
142,0.260509,-0.058126,0.174118
143,0.242794,-0.100766,0.177354
144,0.06206,-0.244197,0.01489
145,0.008833,-0.472645,0.0105
146,0.006447,-0.524105,-0.07196
147,0.030478,-0.510648,0.033955
148,0.02544,-0.401905,0.10598
149,0.102571,-0.301411,0.004478
150,0.218996,-0.024359,0.020646
151,0.229088,0.163744,-0.231505
152,0.388715,0.515665,-1.355045
153,0.410228,0.303985,-0.264173
154,0.287391,0.410993,-0.591483
155,0.660282,0.34959,-0.393282
156,0.6881,0.385664,-0.192996
157,0.498998,0.505325,-0.18479
158,-0.001986,0.434292,-0.308004
159,0.015872,0.3972,-0.164429
160,0.049582,0.289928,-0.083519
161,-0.142337,0.518684,0.048181
162,0.082739,0.42162,0.35062
163,-0.024433,0.540025,0.401849
164,-0.152314,0.585615,0.322177
165,-0.296073,0.666194,0.023166
166,-0.047357,0.625462,0.460401
167,0.281624,0.42512,0.296141
168,0.495093,0.246889,0.106882
169,0.533185,0.202901,-0.121116
170,0.174002,-0.269512,0.371923
171,0.158085,-0.629595,0.650835
172,0.290215,-0.892137,0.614792
173,0.282056,-0.832007,0.52033
174,0.229115,-0.727056,0.482646
175,0.181374,-0.763313,0.472901
176,0.061568,-0.77545,0.444775
177,-0.009382,-0.829379,0.331707
178,-0.094495,-0.692069,-0.020101
179,-0.171599,-0.502846,-0.120951
180,-0.269359,-0.174069,-0.226375
181,0.001726,2.541824,-1.228264
182,-0.350233,2.603712,-1.455366
183,-0.299021,-0.614046,-0.87113
184,-0.109205,-0.736994,-0.390577
185,-0.049808,0.339422,0.332884
186,0.402642,0.866173,0.726727
187,0.368075,1.006111,0.585072
188,0.406052,-0.41015,0.573119
189,0.069196,-0.611806,0.820339
190,0.093478,0.082478,0.006083
191,0.446031,0.849743,0.011449
192,0.435189,0.101468,0.543607
193,0.231203,-0.186681,0.209591
194,0.246345,-0.00941,-0.030193
195,0.170318,-0.274315,0.15852
196,0.075247,-0.344715,0.040498
197,-0.028228,-0.423127,-0.081709
198,0.052874,-0.535285,0.004679
199,0.101163,-0.477654,-0.024639
200,0.162343,-0.203017,0.051248
201,0.129257,-0.048094,-0.179684
202,0.262798,0.193879,-0.307628
203,0.441709,0.393542,-0.958144
204,0.584619,0.35783,-0.373802
205,0.280206,0.351048,-0.542096
206,0.381788,0.458672,-0.358574
207,0.558312,0.350809,-0.304176
208,0.372489,0.432347,-0.221483
209,0.074298,0.383939,-0.28484
210,-0.002098,0.52695,-0.253794
211,0.170511,0.436432,-0.024877
212,-0.180004,0.337469,0.081447
213,-0.200667,0.215364,0.277928
214,-0.106774,0.434243,0.374976
215,-0.140981,0.657008,0.158586
216,-0.29266,0.784257,0.145828
217,-0.013289,0.60846,0.172542
218,0.255356,0.429599,0.324121
219,0.490547,0.211919,0.244635
220,0.53254,-0.084066,-0.152188
221,0.255113,-0.438011,0.336531
222,0.118342,-0.452679,0.547707
223,0.230835,-0.688882,0.539103
224,0.347242,-0.642778,0.521771
225,0.334529,-0.624398,0.496709
226,0.101678,-0.747415,0.415534
227,0.109478,-0.746841,0.411407
228,-0.008695,-0.785091,0.35565
229,-0.105742,-0.621632,0.00215
230,-0.126866,-0.643494,-0.033214
231,-0.121626,0.467819,-0.506693
232,-0.01176,2.368627,-1.372855
233,-0.595787,1.132451,-1.421336
234,-0.135729,-0.3844,-0.781273
235,-0.208989,-0.446797,-0.212462
236,0.085906,0.354488,0.602674
237,0.337073,0.925674,0.825296
238,0.299968,0.386892,0.581689
239,0.304908,-0.447877,0.704081
240,0.008227,-0.054729,0.309186
241,0.108167,0.527922,0.098389
242,0.404123,0.700883,0.241034
243,0.311053,-0.012316,0.193827
244,0.326272,-0.029597,0.033774
245,0.308556,-0.029251,0.007859
246,0.252695,-0.38928,0.136213
247,0.153792,-0.366741,0.036905
248,-0.000735,-0.375401,-0.026931
249,0.010128,-0.40261,-0.186239
250,0.071083,-0.393143,-0.226818
251,0.248212,-0.286733,-0.09282
252,0.293889,-0.091492,0.105285
253,0.172902,0.097394,0.039873
254,0.157322,0.242699,-0.177991
255,0.393357,0.282085,-1.00145
256,0.525238,0.363867,-0.232991
257,0.183243,0.441041,-0.405456
258,0.284658,0.274988,-0.167606
259,0.474979,0.342201,-0.163287
260,0.287178,0.388659,-0.284737
261,0.111557,0.388744,-0.40371
262,0.046089,0.395734,-0.252482
263,0.222628,0.290367,-0.100841
264,0.138673,0.2759,0.099984
265,0.164927,0.476904,0.295812
266,0.15986,0.57563,0.559424
267,-0.166764,0.716008,0.439315
268,-0.328303,0.627367,0.150831
269,-0.193342,0.536472,0.368882
270,-0.003145,0.401516,0.641085
271,0.400325,-0.005812,-0.252276
272,0.438043,-0.126442,-0.255336
273,0.350142,-0.103131,-0.060273
274,0.228668,-0.343776,0.644485
275,0.287892,-0.674096,0.659392
276,0.317527,-0.711683,0.529401
277,0.182434,-0.65202,0.370117
278,0.190243,-0.644441,0.379624
279,0.064374,-0.663736,0.399978
280,0.012946,-0.712724,0.340074
281,0.005443,-0.731511,0.182721
282,-0.085878,-0.666904,0.022917
283,-0.220066,-0.32595,-0.097791
284,-0.03563,0.641422,-0.549666
285,0.14252,2.714293,-1.15841
286,-0.195761,-0.044018,-1.161902
287,-0.05111,-0.514233,-0.973746
288,-0.014857,-0.108966,-0.068627
289,0.143671,0.208191,0.346805
290,0.532504,0.678569,0.786406
291,0.583808,-0.133471,0.761081
292,0.51972,-0.604998,0.561263
293,0.008212,-0.67274,0.820511
294,0.15826,0.66201,-0.255101
295,0.322425,0.396434,0.310128
296,0.326378,0.061146,0.522513
297,0.314858,-0.075588,0.17083
298,0.139326,0.038941,-0.122575
299,0.208017,-0.074688,0.112086
300,0.136028,-0.295006,0.025072
301,-0.015114,-0.350523,-0.131419
302,0.054575,-0.35676,-0.159287
303,0.219599,-0.253158,-0.13506
304,0.274514,-0.175721,0.021763
305,0.108323,-0.091618,0.062003
306,-0.016215,-0.004508,-0.111619
307,0.090062,0.123972,-0.311801
308,0.294061,0.192553,-0.646089
309,0.282904,0.197182,-0.409796
310,0.298432,0.389886,-0.41109
311,0.541753,0.258713,-0.356046
312,0.62396,0.208632,-0.291549
313,0.273459,0.42255,-0.420446
314,0.161971,0.45761,-0.372488
315,0.251054,0.461971,-0.31914
316,0.069749,0.377542,0.047196
317,-0.012798,0.456276,0.183038
318,-0.099564,0.498174,0.283948
319,-0.28352,0.517574,0.266078
320,-0.321101,0.619606,0.215467
321,-0.340589,0.698516,0.200957
322,-0.1425,0.442041,0.252632
323,-0.021481,0.381736,0.238778
324,0.152553,0.259147,0.245177
325,0.487053,-0.151348,0.16247
326,0.472616,-0.26296,0.220606
327,0.445439,-0.340231,0.303947
328,0.32185,-0.663686,0.479603
329,0.294144,-0.689017,0.417884
330,0.208526,-0.648945,0.384885
331,0.162277,-0.640767,0.371059
332,0.089285,-0.69939,0.323161
333,0.094301,-0.690833,0.217375
334,0.071679,-0.699078,0.129363
335,0.04729,-0.720372,0.095848
336,-0.051993,0.203592,-0.530792
337,-0.049376,1.96709,-1.5201
338,-0.064054,1.977224,-1.474475
339,-0.632312,-0.501245,-0.293189
340,-0.448329,-0.925616,-0.18067
341,-0.428179,0.237357,0.164093
342,0.486182,1.695095,0.769126
343,0.638551,0.449519,0.31777
344,0.378409,-0.931087,0.242022
345,0.46833,-0.302457,0.577065
346,0.455236,0.520073,-0.063794
347,0.562007,0.70446,0.279812
348,0.284947,0.227693,0.194612
349,0.173744,-0.032976,-0.07581
350,0.035324,-0.08221,-0.040868
351,-0.002405,-0.466042,0.196585
352,0.132862,-0.372875,0.047844
353,0.292847,-0.33927,0.029973
354,0.356525,-0.338168,-0.022463
355,0.157261,-0.310384,-0.083403
356,0.074547,-0.249016,0.030914
357,0.037824,-0.188126,0.158247
358,0.048006,-0.105002,0.017015
359,0.063872,-0.097552,-0.01041
360,0.312613,0.418753,-0.800361
361,0.396249,0.400275,-0.477317
362,0.265989,0.398759,-0.347497
363,0.514117,0.232401,-0.157405
364,0.56584,0.385067,-0.254798
365,0.349377,0.48616,-0.465677
366,0.112348,0.30895,-0.37048
367,0.167473,0.077855,-0.215326
368,0.299041,0.069437,-0.052979
369,0.294927,0.135264,0.178924
370,-0.183765,0.638951,0.482043
371,-0.415645,0.720853,0.468994
372,-0.564528,0.792856,0.363944
373,-0.057777,0.889331,0.138176
374,0.102214,0.770149,0.095811
375,0.39665,0.462262,0.132171
376,0.481303,0.192373,0.220087
377,0.447109,-0.176057,0.169842
378,0.311472,-0.588816,0.531816
379,0.231058,-0.751621,0.705958
380,0.126645,-0.826701,0.699536
381,0.161683,-0.718554,0.403811
382,0.278008,-0.627962,0.350219
383,0.265188,-0.609792,0.412795
384,0.043625,-0.810943,0.453453
385,-0.03038,-0.775366,0.379242
386,-0.07879,-0.761989,0.185952
387,-0.110302,-0.579164,-0.151942
388,-0.150429,0.220849,-0.650824
389,0.076835,1.97886,-1.598981
390,-0.514986,1.36216,-1.12128
391,-0.281405,-0.474962,-0.592218
392,-0.302106,-0.442595,-0.398952
393,-0.10502,0.879876,0.145606
394,0.359971,2.607909,0.605994
395,0.848184,-0.134495,0.558009
396,0.326145,-1.515273,1.466247
397,-0.15662,-1.269242,0.771905
398,-0.144834,-0.428341,0.309705
399,0.796288,1.223897,0.830753
400,0.559076,0.336528,0.358085
401,0.235167,0.095424,0.027815
402,0.052884,-0.121192,-0.103721
403,0.001626,-0.518142,0.122423
404,0.120579,-0.512197,-0.081852
405,0.327934,-0.443145,-0.036149
406,0.443278,-0.382768,0.092803
407,0.438972,-0.3826,0.051964
408,0.112004,-0.156558,-0.178186
409,-0.127314,-0.160774,-0.108389
410,-0.065706,-0.132128,0.005942
411,0.014198,-0.060684,-0.028171
412,0.116483,0.21426,-0.492339
413,0.230845,0.421054,-1.030815
414,0.434484,0.369375,-0.309048
415,0.460546,0.329217,-0.260436
416,0.397603,0.356827,-0.269566
417,-0.046203,0.433074,-0.549676
418,0.082024,0.15012,-0.27424
419,0.041908,0.286735,-0.22819
420,0.113091,0.419145,-0.006989
421,0.184289,0.72425,0.442877
422,0.076445,0.735642,0.683142
423,-0.453248,0.704086,0.289644
424,-0.328536,0.719244,-0.016828
425,-0.053791,0.759961,0.060362
426,0.133962,0.583011,0.042018
427,0.37407,0.31563,0.177211
428,0.512258,0.031339,0.066989
429,0.233425,-0.163007,0.130765
430,0.151998,-0.4171,0.592877
431,0.175945,-0.704677,0.532189
432,0.314246,-0.797681,0.536107
433,0.363004,-0.805463,0.532671
434,0.241173,-0.785326,0.413026
435,0.171697,-0.845961,0.426768
436,0.078873,-0.883848,0.391456
437,0.00029,-0.822031,0.253202
438,-0.032633,-0.789698,0.002325
439,-0.093777,-0.413066,-0.29895
440,0.023024,0.891693,-1.182582
441,-0.219829,2.74513,-1.249654
442,-0.579996,0.931456,-0.841049
443,-0.182202,-0.486026,-0.434041
444,-0.368836,0.092518,0.100592
445,0.51539,1.507715,0.55006
446,0.501514,0.666275,0.578033
447,0.587707,-0.676268,0.620901
448,-0.10358,-0.997885,0.931116
449,-0.190474,-0.592524,0.486599
450,0.668248,1.084069,0.059353
451,0.639533,0.237487,0.45485
452,0.341019,-0.060472,0.098315
453,0.280113,-0.014408,-0.064043
454,0.223837,-0.331678,0.334354
455,0.074855,-0.342508,0.112181
456,-0.074466,-0.410295,0.054782
457,-0.205272,-0.382246,0.210274
458,-0.064463,-0.384255,0.038614
459,-0.000812,-0.345461,0.062026
460,0.059527,-0.381015,0.046343
461,0.111173,-0.30153,0.058868
462,0.238278,0.26142,-0.879119
463,0.469314,0.402909,-1.134695
464,0.644738,0.346411,-0.201782
465,0.300868,0.525917,-0.593123
466,0.449637,0.441242,-0.321767
467,0.44572,0.500675,-0.341541
468,0.210286,0.467275,-0.383322
469,0.1111,0.429654,-0.35264
470,-0.037019,0.299706,-0.198551
471,-0.039259,0.255668,0.089175
472,-0.129693,0.54678,0.101919
473,-0.027043,0.639504,0.446201
474,-0.221528,0.723667,0.319171
475,-0.411249,0.758864,0.21906
476,-0.302063,0.61221,0.179131
477,-0.112883,0.548091,0.278462
478,0.294432,0.397742,0.038297
479,0.382271,0.116806,-0.082678
480,0.27787,-0.067476,0.115685
481,0.13209,-0.281694,0.661626
482,0.135168,-0.756514,0.845488
483,0.285274,-0.849053,0.642135
484,0.298792,-0.57839,0.42194
485,0.300277,-0.529374,0.402652
486,0.307998,-0.582812,0.427079
487,0.112463,-0.721694,0.423697
488,0.106958,-0.745511,0.369382
489,0.046739,-0.716215,0.053063
490,0.016641,-0.660717,-0.254069
491,-0.198732,0.045444,-0.765651
492,-0.169034,0.794321,-1.197977
493,-0.843413,1.524757,-1.302832
494,-0.818401,0.732141,-0.815057
495,-0.589356,-0.190481,0.123259
496,-0.149871,1.054593,0.638173
497,0.403728,1.4173,0.394183
498,0.521072,-0.708794,0.229737
499,0.50844,-0.270259,0.406865
500,0.528201,0.285822,0.284429
501,0.791336,0.889637,0.288217
502,0.446817,0.481203,0.301256
503,0.26807,0.376261,-0.103568
504,0.27089,0.251418,-0.030758
505,0.295508,-0.083401,0.151627
506,0.126839,-0.509801,0.163269
507,0.004848,-0.495516,0.091736
508,0.048544,-0.423992,0.031062
509,0.157693,-0.309199,-0.127625
510,0.103686,-0.453858,-0.119919
511,0.122568,-0.536617,0.018828
512,0.172709,-0.479347,0.312418
513,0.10403,0.02106,-0.015965
514,0.16663,0.172589,-0.382062
515,0.364149,0.375096,-0.853155
516,0.507553,0.518253,-0.431608
517,0.398784,0.470298,-0.425987
518,0.456114,0.414661,-0.179078
519,0.46809,0.516749,-0.359565
520,0.415363,0.463771,-0.346715
521,0.278781,0.373083,-0.153312
522,0.394947,0.319513,0.017396
523,0.253623,0.495161,0.224788
524,0.023283,0.641624,0.414134
525,-0.005085,0.529045,0.231739
526,-0.067162,0.694308,0.312902
527,-0.094626,0.740705,0.202345
528,0.045898,0.680542,0.284793
529,0.201768,0.601056,0.350761
530,0.212108,0.443776,0.417787
531,0.420717,0.009928,0.491595
532,0.392916,-0.2801,0.460156
533,0.340782,-0.720936,0.440863
534,0.266689,-0.919115,0.668488
535,0.091374,-0.77486,0.408915
536,0.102481,-0.689024,0.267707
537,0.153592,-0.577744,0.226072
538,0.070991,-0.666812,0.358761
539,0.001587,-0.712997,0.358528
540,-0.076967,-0.765501,0.320423
541,-0.144272,-0.715137,0.057294
542,-0.133913,-0.558653,-0.024416
543,0.052557,0.648283,-0.436638
544,0.083358,2.458495,-1.218096
545,-0.527338,0.928858,-1.341658
546,-0.334724,-0.719074,-0.730299
547,-0.175859,-0.447501,-0.338954
548,0.279187,0.509458,0.338405
549,1.084852,1.789626,0.829598
550,0.779099,-0.02486,0.564826
551,0.277794,-0.925536,1.097569
552,-0.075097,0.029131,-0.321314
553,0.586973,0.94912,0.268569
554,0.678399,0.666117,0.513283
555,0.425966,0.158902,0.279361
556,0.32543,0.1257,0.153686
557,0.014541,-0.136342,0.09922
558,-0.092508,-0.31668,0.186765
559,0.07628,-0.357965,0.072303
560,0.128271,-0.317677,-0.086766
561,0.148684,-0.342294,-0.118667
562,0.111404,-0.463551,-0.031121
563,0.112514,-0.477857,-2.90E-05
564,0.118753,-0.154778,-0.013628
565,0.208743,0.19802,-0.306659
566,0.328267,0.225133,-0.728294
567,0.34847,0.227209,-0.354337
568,0.210718,0.431096,-0.538978
569,0.508108,0.35435,-0.209028
570,0.508176,0.391545,-0.204216
571,0.271327,0.580877,-0.428538
572,0.224183,0.5252,-0.324246
573,0.233565,0.487365,-0.182584
574,0.193643,0.40896,0.020748
575,0.115769,0.412281,0.130445
576,-0.216314,0.393154,0.247992
577,-0.193138,0.480054,0.392573
578,-0.064321,0.577605,0.304365
579,-0.016387,0.603196,0.263418
580,-0.005682,0.531664,0.204104
581,0.075376,0.532217,0.193292
582,0.435879,0.26052,-0.074437
583,0.469329,0.037912,0.077837
584,0.220402,-0.178214,0.463243
585,0.196479,-0.302898,0.55007
586,0.226843,-0.730587,0.511301
587,0.240578,-0.728824,0.489087
588,0.235782,-0.70359,0.46293
589,0.226374,-0.655965,0.435993
590,0.155198,-0.682125,0.396753
591,0.095192,-0.698635,0.345114
592,-0.042747,-0.735465,0.030278
593,-0.071367,-0.721286,-0.091318
594,-0.170002,-0.568263,-0.179553
595,0.158676,2.133134,-0.934509
596,-0.052939,2.8634,-1.153276
597,-0.468265,-0.364789,-0.972048
598,-0.169541,-0.755134,-0.444723
599,-0.10191,-0.33827,-0.070132
600,0.658445,0.824679,0.868155
601,0.615582,0.906977,1.099146
602,0.492877,-0.029831,0.692146
603,-0.149515,-0.705022,0.851576
604,-0.215463,-0.161578,-0.086106
605,0.101029,0.709945,-0.434841
606,0.435871,0.298599,0.342874
607,0.438408,-0.172709,0.408577
608,0.424004,0.023978,0.092823
609,0.311367,-0.072055,0.127604
610,0.171603,-0.287558,0.171529
611,0.055019,-0.30213,0.037073
612,0.056668,-0.273559,-0.065167
613,0.053572,-0.337186,-0.104909
614,0.119412,-0.350086,0.001764
615,0.147769,-0.214226,0.055452
616,0.16626,-0.143053,-0.043258
617,0.155118,0.009783,-0.174304
618,0.225492,0.248986,-0.88747
619,0.414028,0.265828,-0.478338
620,0.27763,0.371272,-0.475967
621,0.527712,0.248054,-0.130365
622,0.497176,0.28145,-0.173625
623,0.373148,0.437682,-0.259308
624,0.045328,0.467807,-0.327001
625,0.174267,0.402531,-0.056583
626,0.18064,0.412822,0.087464
627,-0.06585,0.49958,0.156599
628,-0.278251,0.436318,0.246557
629,-0.227399,0.476245,0.297852
630,-0.035519,0.516928,0.21377
631,-0.153271,0.612877,0.173678
632,-0.141665,0.532366,0.11498
633,0.166138,0.270669,0.213829
634,0.448897,0.008609,0.052119
635,0.400163,-0.063125,0.117629
636,0.290161,-0.166676,0.27157
637,0.118801,-0.520238,0.61676
638,0.22505,-0.62343,0.534122
639,0.234955,-0.670027,0.500852
640,0.130771,-0.652936,0.385873
641,0.128696,-0.674993,0.365538
642,0.058855,-0.670872,0.297951
643,0.024906,-0.665173,0.167538
644,0.018771,-0.743394,-0.079353
645,-0.04901,-0.407215,-0.222165
646,0.054858,0.625127,-0.619355
647,0.005542,2.666916,-1.051688
648,-0.699491,0.947551,-1.441847
649,-0.353044,-0.868183,-0.762014
650,0.066513,-1.067206,-0.072939
651,0.121239,-0.528353,0.65908
652,0.124681,-0.011973,1.069565
653,0.267975,1.858473,0.933985
654,0.476434,1.667543,-0.409401
655,0.856236,-0.186531,0.858738
656,-0.374896,-0.957567,0.841962
657,-0.405681,-0.205563,-0.665827
658,0.365331,0.514525,-0.037137
659,0.668006,0.001075,0.558277
660,0.535167,0.045234,0.509747
661,0.14815,-0.066043,0.165998
662,-0.167694,-0.103809,0.111372
663,-0.12556,-0.310991,0.202405
664,0.141618,-0.251862,0.003541
665,0.150611,-0.261957,-0.100162
666,0.162291,-0.271283,-0.140899
667,0.142819,-0.226506,-0.218011
668,0.146302,-0.137161,-0.224891
669,0.188312,0.094912,-0.403738
670,0.251948,0.209482,-0.653632
671,0.257789,0.082141,-0.530091
672,0.322242,0.19408,-0.487196
673,0.484893,0.329703,-0.28706
674,0.448284,0.416394,-0.194393
675,0.231937,0.409006,-0.324652
676,0.097844,0.447905,-0.284066
677,0.18914,0.347285,-0.223808
678,0.004583,0.400289,0.043986
679,-0.035722,0.600277,0.132545
680,-0.089056,0.565045,0.381611
681,-0.213452,0.600715,0.40967
682,-0.219942,0.570233,0.246068
683,-0.224987,0.575029,0.298925
684,0.053016,0.486466,0.232407
685,0.210785,0.288959,0.138042
686,0.480952,0.099603,-0.025703
687,0.333778,-0.080596,0.244576
688,0.146732,-0.341988,0.607355
689,0.186969,-0.646029,0.669604
690,0.245054,-0.721205,0.542403
691,0.21463,-0.694875,0.494349
692,0.158698,-0.644519,0.428346
693,0.128619,-0.691295,0.422768
694,0.077357,-0.701216,0.336494
695,0.021463,-0.700768,0.203873
696,-0.040437,-0.675685,-0.0097
697,-0.057982,-0.353195,-0.108834
698,0.016316,0.75274,-0.619651
699,-0.032948,2.838285,-1.216201
700,-0.697925,0.776509,-1.397426
701,-0.471376,-0.324154,-0.990575
702,0.045576,-0.915494,0.021906
703,0.091656,-0.089593,0.659957
704,0.305411,0.403864,1.155214
705,0.283359,1.750283,0.695839
706,0.571293,0.474097,-0.148865
707,0.43269,-0.557871,0.97383
708,-0.192866,-0.325019,0.362681
709,0.046208,0.524611,-0.380712
710,0.354633,0.384501,0.213758
711,0.373481,-0.236181,0.462705
712,0.425086,-0.076992,0.473794
713,0.363248,-0.052465,0.33407
714,0.063859,-0.172313,0.111561
715,-0.017775,-0.249368,0.08687
716,-0.006199,-0.265928,0.113361
717,0.054756,-0.228468,0.076496
718,0.133991,-0.201355,0.02998
719,0.191711,-0.171547,-0.116755
720,0.23464,-0.087959,-0.261392
721,0.288367,0.087973,-0.655288
722,0.321782,0.135178,-0.66769
723,0.349229,0.174355,-0.578764
724,0.107883,0.244143,-0.500773
725,0.324093,0.283297,-0.399541
726,0.531705,0.28821,-0.253743
727,0.229818,0.37244,-0.189963
728,0.070949,0.32812,-0.291603
729,0.056937,0.276606,-0.355269
730,0.068184,0.238001,-0.115062
731,0.082309,0.292436,-0.052632
732,0.166055,0.555828,0.239854
733,0.069216,0.680535,0.482463
734,-0.328962,0.548662,0.383945
735,-0.287305,0.415478,0.228043
736,-0.185501,0.34475,0.288771
737,-0.010822,0.48718,0.344185
738,0.303549,0.356436,-0.169428
739,0.396785,0.109797,-0.108217
740,0.343003,0.12832,0.12123
741,0.210757,-0.352728,0.646098
742,0.283763,-0.610288,0.623347
743,0.322749,-0.659897,0.578408
744,0.243434,-0.676388,0.403686
745,0.202535,-0.661265,0.42091
746,0.1246,-0.630174,0.398303
747,0.167061,-0.717109,0.410261
748,0.074469,-0.689756,0.268343
749,0.006301,-0.688577,0.157479
750,-0.108684,-0.444409,-0.106845
751,-0.051778,0.28291,-0.430232
752,0.018939,0.988129,-0.74977
753,-0.509739,1.749514,-1.277385
754,-0.333092,-0.546941,-0.907349
755,-0.174393,-0.989607,-0.531661
756,0.024373,-0.0306,0.326666
757,0.554165,0.602836,1.038003
758,0.441772,1.381758,0.892973
759,0.575849,-0.129955,0.316216
760,0.260398,-0.356321,0.646898
761,-0.047325,0.064754,0.076619
762,0.341227,0.624065,-0.175077
763,0.347128,0.172013,0.300111
764,0.356775,-0.12113,0.366705
765,0.410781,0.096333,0.315859
766,0.131327,0.051004,0.165046
767,0.11205,0.043723,0.131955
768,-0.074607,-0.362944,-0.004268
769,-0.145227,-0.349169,-0.070781
770,-0.110739,-0.337076,-0.099252
771,0.162966,-0.348696,0.038975
772,0.247543,-0.258189,0.063271
773,0.269553,-0.075319,-0.077381
774,0.292891,-0.005949,-0.18119
775,0.242623,0.167538,-0.739086
776,0.310944,0.162673,-0.537537
777,0.25386,0.287862,-0.423619
778,0.590512,0.220881,-0.179622
779,0.545655,0.30206,-0.190387
780,0.365328,0.435486,-0.389136
781,0.14055,0.325903,-0.384519
782,0.163239,0.326686,-0.18093
783,0.163187,0.253259,-0.032324
784,0.098264,0.585901,0.256374
785,-0.135878,0.570912,0.351723
786,-0.224518,0.642239,0.474519
787,-0.247105,0.457406,0.201891
788,-0.191683,0.554786,0.220405
789,-0.087526,0.616198,0.128228
790,0.309141,0.3281,0.108184
791,0.379269,0.196813,0.064485
792,0.293491,0.02154,0.213304
793,0.12777,-0.210612,0.513651
794,0.084053,-0.398692,0.640408
795,0.248279,-0.759355,0.614389
796,0.225681,-0.717707,0.472261
797,0.203479,-0.676855,0.428849
798,0.20772,-0.712593,0.388657
799,0.079259,-0.718833,0.373438
800,0.051805,-0.715975,0.255369
801,-0.008212,-0.759544,0.03071
802,-0.022358,-0.602835,-0.147021
803,-0.069319,-0.286702,-0.244505
804,0.018579,1.964368,-1.120835
805,-0.750468,1.730587,-1.310932
806,-0.268178,-0.517754,-0.775599
807,-0.179185,-0.775768,-0.149616
808,0.187519,0.351834,0.690927
809,0.391601,1.481014,0.908726
810,0.458331,0.610373,0.524051
811,0.532796,-0.420307,0.752174
812,0.184864,-0.279719,0.669588
813,0.152604,0.297028,0.003859
814,0.336244,0.715585,0.134923
815,0.376385,0.440548,0.373964
816,0.331551,0.038099,0.300051
817,0.214531,-0.079874,0.33564
818,0.086119,-0.176084,0.284382
819,-0.015186,-0.251653,0.130246
820,0.010376,-0.369925,0.058367
821,0.029746,-0.363429,0.020924
822,0.071946,-0.331898,-0.02001
823,0.124776,-0.405277,0.044739
824,0.212241,-0.311081,-0.0262
825,0.252202,-0.14492,-0.0955
826,0.247799,0.22022,-0.850556
827,0.363132,0.235185,-0.714854
828,0.454462,0.211845,-0.500528
829,0.437122,0.338994,-0.180469
830,0.52717,0.297648,-0.16309
831,0.403773,0.434267,-0.262657
832,0.191379,0.485022,-0.437668
833,0.24821,0.436185,-0.201149
834,0.176141,0.322083,-0.069491
835,0.006206,0.28859,0.183646
836,-0.179557,0.463487,0.202454
837,-0.236652,0.523511,0.419768
838,-0.287076,0.634757,0.35406
839,-0.260167,0.700456,0.297426
840,-0.050023,0.629272,0.236701
841,0.290774,0.442577,0.316716
842,0.481459,0.06236,0.202694
843,0.499845,-0.111637,0.028272
844,0.219286,-0.18869,0.254438
845,0.127362,-0.327049,0.568923
846,0.108571,-0.617426,0.66636
847,0.238571,-0.640078,0.546337
848,0.25207,-0.589157,0.44579
849,0.126604,-0.617576,0.436383
850,0.039701,-0.637772,0.404698
851,0.03278,-0.647073,0.38572
852,-0.010725,-0.663951,0.202564
853,-0.041323,-0.577944,0.017508
854,-0.028779,-0.066254,-0.179554
855,0.144245,1.264556,-0.870165
856,0.080046,2.363302,-1.154912
857,-0.364523,2.617363,-1.235817
858,-0.035587,-0.97699,-0.556453
859,0.002184,-0.542258,0.117214
860,0.256102,0.247452,0.86608
861,0.539207,1.375388,0.96135
862,0.484493,0.814734,0.533317
863,0.684647,-0.356819,0.693062
864,0.012109,-0.486151,0.737107
865,-0.210427,0.066839,-0.121259
866,0.021616,0.565061,-0.048687
867,0.230929,-0.014685,0.403329
868,0.371571,-0.08077,0.365915
869,0.442799,-0.030798,0.308153
870,0.276509,-0.117254,0.152643
871,0.106281,-0.232299,0.087776
872,0.052266,-0.277892,-0.019857
873,0.073119,-0.333024,-0.0521
874,0.077632,-0.281177,0.007099
875,0.091681,-0.267187,0.043686
876,0.183878,-0.140512,-0.034139
877,0.244744,0.049245,-0.107947
878,0.362682,0.160522,-0.485586
879,0.366388,0.223594,-0.620484
880,0.300433,0.237088,-0.379228
881,0.195404,0.292669,-0.456703
882,0.52812,0.235711,-0.250922
883,0.466515,0.303597,-0.170164
884,0.263911,0.335292,-0.347344
885,0.066116,0.377848,-0.280768
886,0.139922,0.259351,-0.02999
887,-0.006725,0.398002,0.148068
888,-0.120535,0.542702,0.222183
889,-0.12257,0.588581,0.379228
890,-0.114704,0.571824,0.401931
891,-0.2054,0.591952,0.381233
892,-0.000997,0.554436,0.33442
893,0.070429,0.486033,0.37743
894,0.252908,0.424565,0.235045
895,0.400153,-0.062676,-0.00056
896,0.286581,-0.032354,0.269384
897,0.171588,-0.137368,0.530333
898,0.247904,-0.565805,0.57475
899,0.231712,-0.640383,0.561985
900,0.232621,-0.620984,0.441527
901,0.233692,-0.646033,0.44321
902,0.080421,-0.698206,0.412018
903,0.034352,-0.731305,0.332241
904,-0.067145,-0.73711,0.135339
905,-0.057603,-0.650347,-0.060161
906,-0.027487,-0.096702,-0.180167
907,0.0768,1.30372,-0.760224
908,0.037405,2.37377,-0.959603
909,-0.436481,0.146312,-1.237589
910,-0.046709,-0.854469,-0.626484
911,0.064717,-0.75012,-0.317662
912,0.394124,0.375747,0.808274
913,0.525011,1.44019,1.061701
914,0.554039,0.486934,0.693537
915,0.39291,-0.414628,0.74991
916,-0.361273,-0.553475,0.461169
917,-0.336954,-0.269665,-0.10582
918,0.375588,0.551261,0.061685
919,0.38853,-0.120161,0.522758
920,0.466658,0.005385,0.363262
921,0.410387,0.050356,0.032596
922,0.077037,-0.233828,0.171594
923,0.005031,-0.323426,0.0393
924,0.018754,-0.405142,-0.056898
925,-0.051949,-0.364208,-0.086178
926,-0.061908,-0.365698,-0.130776
927,0.140435,-0.247694,0.105784
928,0.164423,-0.139479,0.047973
929,0.19137,-0.059051,-0.041946
930,0.298198,0.160575,-0.534762
931,0.414849,0.195772,-0.522862
932,0.341598,0.348488,-0.435722
933,0.398158,0.30054,-0.325292
934,0.656514,0.191747,-0.228172
935,0.417477,0.494923,-0.418632
936,0.181414,0.37602,-0.372719
937,0.025921,0.32454,-0.067192
938,-0.00584,0.326032,0.109219
939,-0.256025,0.640431,0.312644
940,-0.379149,0.501227,0.209104
941,-0.381976,0.538893,0.395508
942,-0.355492,0.576195,0.354867
943,-0.174052,0.603456,0.202762
944,0.047419,0.52476,0.306245
945,0.252871,0.449325,0.3287
946,0.501135,0.121844,0.177612
947,0.505088,-0.055854,0.125024
948,0.392716,-0.088476,0.286424
949,0.119138,-0.713372,0.704441
950,0.171317,-0.739217,0.683205
951,0.201121,-0.734955,0.63942
952,0.231171,-0.566535,0.3813
953,0.171385,-0.576215,0.390884
954,0.105741,-0.676862,0.366997
955,0.090745,-0.708503,0.290303
956,0.021904,-0.71177,0.07707
957,-0.001648,-0.667806,-0.141544
958,-0.003744,0.040822,-0.413293
959,0.100863,0.788877,-0.854262
960,-0.648859,2.212866,-1.198842
961,-0.6861,0.795012,-1.145457
962,-0.08511,-0.941235,-0.310194
963,-0.071972,-0.008155,0.403183
964,0.205133,0.398027,1.554366
965,0.126242,1.427997,0.991443
966,0.709541,0.580608,-0.362383
967,0.965599,-0.127227,0.742106
968,0.077702,-0.253691,0.704133
969,-0.181917,0.081381,-0.140168
970,0.092155,0.213936,0.14438
971,0.281211,-0.086025,0.439589
972,0.297394,0.041773,0.369709
973,0.135884,-0.19233,0.292591
974,0.089043,-0.378917,0.30252
975,0.015053,-0.407848,0.282931
976,-0.025213,-0.22863,0.251693
977,0.020919,-0.181133,0.109885
978,0.166361,-0.18805,-0.235143
979,0.308046,-0.228199,-0.132971
980,0.322581,-0.147129,-0.116249
981,0.246488,0.224479,-0.430034
982,0.195,0.273207,-0.498784
983,0.211303,0.215323,-0.487449
984,0.286085,0.328823,-0.515591
985,0.725137,0.208826,-0.226774
986,0.712076,0.276851,-0.158387
987,0.544096,0.396254,-0.170361
988,-0.081126,0.346542,-0.24782
989,-0.183842,0.242389,-0.164382
990,-0.199263,0.081011,0.010058
991,-0.250849,0.664311,0.185421
992,-0.188479,0.592124,0.290673
993,-0.103473,0.604127,0.413243
994,-0.280556,0.549119,0.218372
995,-0.29068,0.446925,0.198002
996,0.203505,0.37392,0.493952
997,0.353449,0.12591,0.16426
998,0.432044,0.100852,0.081919
999,0.328248,-0.044387,0.292424
1000,0.20372,-0.19742,0.613093
1001,0.208424,-0.402195,0.601215
1002,0.180579,-0.571048,0.514679
1003,0.208954,-0.615915,0.476442
1004,0.229977,-0.620614,0.443985
1005,0.15756,-0.717715,0.417442
1006,0.077464,-0.723127,0.337551
1007,0.071184,-0.751297,0.284721
1008,-0.018858,-0.721456,0.057598
1009,0.018331,-0.326613,-0.096361
1010,0.063988,0.653666,-0.775025
1011,-0.413129,2.798493,-1.216832
1012,-0.659352,0.911275,-1.273569
1013,-0.192721,-1.02141,-0.459727
1014,-0.002287,-0.563761,0.07992
1015,0.368462,0.222903,1.155219
1016,0.409197,1.433533,1.201821
1017,0.314351,1.174508,0.058066
1018,1.021208,-0.142963,0.894216
1019,0.005783,-0.551159,0.823421
1020,-0.246102,-0.336313,0.212068
1021,0.491347,0.118696,0.485565
1022,0.469692,0.107295,0.459835
1023,0.27551,0.090664,0.350929
1024,0.058083,-0.15174,0.249069
1025,-0.049279,-0.300454,0.218645
1026,-0.082662,-0.451704,0.321108
1027,0.035119,-0.218101,0.22424
1028,0.116879,-0.19021,0.055975
1029,0.24603,-0.169579,-0.257489
1030,0.316753,-0.14831,-0.310212
1031,0.321692,-0.034035,-0.281305
1032,0.245268,0.070112,-0.39733
1033,0.086832,0.173889,-0.442581
1034,0.05147,0.19644,-0.489461
1035,0.175187,0.247339,-0.524418
1036,0.736976,0.221941,-0.175862
1037,0.733725,0.23678,-0.15228
1038,0.32875,0.385257,-0.094572
1039,0.046327,0.409312,-0.216994
1040,-0.012584,0.303577,-0.164267
1041,0.087435,0.12898,0.22116
1042,-0.183133,0.518527,0.272238
1043,-0.403975,0.560297,0.229959
1044,-0.341558,0.454222,0.502001
1045,-0.286762,0.453105,0.146386
1046,-0.260713,0.489386,0.064085
1047,0.04052,0.52948,0.370281
1048,0.38877,0.385288,0.207517
1049,0.529684,0.331457,0.06073
1050,0.375151,-0.009102,0.26118
1051,0.204855,-0.156069,0.609393
1052,0.146392,-0.338912,0.72748
1053,0.170999,-0.659715,0.584531
1054,0.201567,-0.606594,0.505395
1055,0.218473,-0.537565,0.492904
1056,0.146453,-0.620973,0.391642
1057,0.181506,-0.783924,0.43894
1058,0.000975,-0.750203,0.274281
1059,-0.066183,-0.737507,0.060601
1060,-0.002377,-0.523059,-0.142743
1061,0.010968,0.322899,-0.4738
1062,-0.097002,2.026695,-1.073117
1063,-0.723342,1.614052,-1.024519
1064,-0.081327,-0.543686,-0.611174
1065,-0.130109,-0.795032,-0.142489
1066,0.401686,0.615933,1.079704
1067,0.506577,1.156064,1.213144
1068,0.267129,1.117097,0.738217
1069,0.5551,-0.171606,0.336904
1070,0.434469,-0.443334,0.949521
1071,0.019115,0.011161,-0.076765
1072,0.486822,0.783272,-0.052626
1073,0.506548,-0.039883,0.566629
1074,0.205706,-0.055873,0.396127
1075,0.077546,-0.042571,0.214423
1076,-0.069609,-0.163498,0.188636
1077,-0.048805,-0.409923,0.222757
1078,0.14883,-0.297954,0.207245
1079,0.268383,-0.191662,0.092231
1080,0.207375,-0.197073,-0.024153
1081,0.162064,-0.262034,-0.070254
1082,0.09036,-0.166003,-0.141181
1083,0.069383,0.044086,-0.161963
1084,0.207554,0.177556,-0.715464
1085,0.330988,0.192936,-0.632957
1086,0.350959,0.312842,-0.413809
1087,0.555613,0.275687,-0.247632
1088,0.741807,0.24125,-0.177348
1089,0.279393,0.507062,-0.226107
1090,-0.178779,0.389274,-0.35467
1091,-0.131983,0.115998,-0.1529
1092,0.077278,-0.106286,0.072058
1093,0.038889,0.308775,0.127273
1094,0.056479,0.564035,0.234402
1095,-0.052937,0.86704,0.563815
1096,-0.470096,0.608257,0.468684
1097,-0.611828,0.508798,0.264144
1098,-0.135958,0.484436,0.351483
1099,0.1717,0.311087,0.371973
1100,0.246353,0.114013,0.332043
1101,0.426474,-0.186839,0.447543
1102,0.48221,-0.192383,0.154433
1103,0.242991,-0.41477,0.408078
1104,0.20571,-0.540466,0.677955
1105,0.176084,-0.498953,0.586239
1106,0.114481,-0.529522,0.503032
1107,0.158401,-0.570412,0.44882
1108,0.017733,-0.654814,0.428987
1109,-0.041095,-0.681137,0.403859
1110,-0.090798,-0.731324,0.162465
1111,-0.018318,-0.676409,-0.050384
1112,0.001396,-0.463083,-0.164401
1113,0.187733,1.442866,-1.102405
1114,-0.459272,2.709994,-1.350857
1115,-0.561299,1.30975,-1.175778
1116,-0.056136,-1.302931,-0.35499
1117,0.146929,-0.317575,0.159584
1118,0.551946,0.515138,1.310752
1119,0.595188,1.854444,1.165154
1120,0.495572,0.564941,-0.068436
1121,0.373493,-0.57058,1.035197
1122,-0.005611,-0.847795,1.000508
1123,-0.185657,0.283282,-0.558857
1124,0.467917,0.262235,0.220322
1125,0.649683,-0.005894,0.536235
1126,0.070129,0.010276,0.09764
1127,-0.11531,-0.041593,0.122267
1128,-0.110476,-0.13905,0.271599
1129,0.038799,-0.322311,0.256681
1130,0.023141,-0.288569,0.120201
1131,0.112748,-0.22049,-0.025154
1132,0.230328,-0.175727,-0.073017
1133,0.197151,-0.124129,-0.053843
1134,0.20056,0.000529,-0.27631
1135,0.221648,0.17824,-0.485504
1136,0.222554,0.184632,-0.463843
1137,0.189384,0.252065,-0.384907
1138,0.404317,0.267428,-0.241545
1139,0.514877,0.249703,-0.120331
1140,0.205691,0.436801,-0.223142
1141,-0.132752,0.393735,-0.345154
1142,-0.029102,0.152315,-0.076692
1143,0.021298,0.158594,0.1306
1144,-0.121903,0.487499,0.171123
1145,-0.078832,0.404963,0.30654
1146,-0.113711,0.604369,0.501866
1147,-0.293489,0.606517,0.3234
1148,-0.212515,0.515433,0.09759
1149,-0.034298,0.553618,0.25535
1150,0.121669,0.302289,0.452421
1151,0.3546,0.065905,0.29208
1152,0.467803,-0.099059,-0.120653
1153,0.168918,-0.156385,0.538877
1154,0.084739,-0.397948,0.70214
1155,0.053605,-0.560121,0.686942
1156,0.143336,-0.617086,0.559228
1157,0.133665,-0.594181,0.48771
1158,0.114101,-0.582144,0.363638
1159,0.0727,-0.703819,0.368309
1160,0.038835,-0.718274,0.32331
1161,-0.010802,-0.759452,0.10698
1162,0.035138,-0.620031,-0.033839
1163,0.028638,-0.370141,-0.124876
1164,-0.051569,1.706836,-0.908034
1165,-0.587304,2.161019,-1.35645
1166,-0.195977,-0.292169,-1.011729
1167,-0.042389,-0.58769,-0.27444
1168,0.462274,0.732528,0.84946
1169,0.599524,1.429538,1.695342
1170,0.537485,-0.138051,0.482229
1171,0.325978,-0.753774,0.662441
1172,-0.145,-0.564935,0.900604
1173,-0.160319,-0.162192,0.260863
1174,0.594343,0.167461,0.496517
1175,0.296578,-0.053071,0.462793
1176,0.012481,-0.019567,0.022946
1177,-0.156159,-0.279277,0.213028
1178,0.034594,-0.301212,0.309268
1179,0.094776,-0.25663,0.163707
1180,0.11393,-0.224347,-0.004485
1181,0.163115,-0.229353,-0.042376
1182,0.276344,-0.17981,-0.037384
1183,0.314751,-0.052955,0.068126
1184,0.20396,-0.029663,0.060653
1185,0.089574,0.057813,-0.523748
1186,0.158828,0.152125,-0.479475
1187,0.153305,0.150634,-0.401173
1188,0.243553,0.280165,-0.425491
1189,0.531577,0.183788,-0.195949
1190,0.490931,0.308471,0.063876
1191,0.013108,0.353948,-0.333291
1192,-0.084473,0.162013,-0.164838
1193,0.087848,0.094854,0.016849
1194,0.035574,0.355498,0.195318
1195,0.021054,0.700111,0.398608
1196,-0.157179,0.960703,0.536658
1197,-0.310525,0.859505,0.551391
1198,-0.202355,0.510157,0.080537
1199,-0.215243,0.520047,0.129075
1200,0.224595,0.437095,0.519876
1201,0.534228,0.00672,-0.050708
1202,0.573784,0.037739,0.006431
1203,0.132554,-0.160751,0.354662
1204,0.044773,-0.575305,0.649455
1205,0.107432,-0.657481,0.665546
1206,0.269633,-0.59891,0.657082
1207,0.263546,-0.592447,0.566941
1208,0.13718,-0.564244,0.474713
1209,0.045,-0.643899,0.454038
1210,0.00269,-0.70707,0.382843
1211,-0.034967,-0.742827,0.253802
1212,-0.011514,-0.671753,0.021812
1213,0.03865,-0.134449,-0.171213
1214,0.115558,1.39772,-0.812878
1215,-0.317434,2.603662,-1.306882
1216,-0.347856,0.105671,-1.267228
1217,0.025083,-1.042549,-0.10086
1218,0.044469,-0.474196,0.206793
1219,0.41575,1.26386,1.428365
1220,0.394204,2.247503,1.265659
1221,0.806106,-0.2184,0.065895
1222,-0.120728,-0.928643,1.204332
1223,-0.450793,-0.469831,0.126803
1224,0.150863,0.654061,-0.325413
1225,0.876716,0.231824,0.66409
1226,0.559734,0.129816,0.620519
1227,0.155409,0.019827,0.161892
1228,-0.177853,-0.147469,0.267897
1229,-0.183087,-0.270541,0.248012
1230,-0.048997,-0.242163,0.305691
1231,0.097442,-0.188628,0.065011
1232,0.155566,-0.198052,-0.014048
1233,0.14698,-0.350184,-0.031698
1234,0.194499,-0.187449,-0.092322
1235,0.238531,0.013614,-0.004299
1236,0.185701,0.042695,-0.365223
1237,0.260133,0.1209,-0.610152
1238,0.308911,0.120493,-0.370821
1239,0.207596,0.279751,-0.36486
1240,0.353312,0.326838,-0.252182
1241,0.486312,0.246297,-0.139061
1242,0.307517,0.351502,-0.202403
1243,0.13662,0.412678,-0.179914
1244,0.159997,0.270304,-0.023421
1245,0.11948,0.265077,0.198701
1246,-0.285284,0.548122,0.24919
1247,-0.287556,0.549102,0.325605
1248,-0.331791,0.593958,0.399343
1249,-0.241582,0.511031,0.19608
1250,-0.251083,0.522363,0.253652
1251,0.217926,0.350172,0.260158
1252,0.367658,0.183347,-0.056628
1253,0.413034,0.213627,-0.001787
1254,0.224359,-0.064522,0.423476
1255,0.121982,-0.275793,0.714152
1256,0.164089,-0.583521,0.728899
1257,0.191241,-0.628094,0.653302
1258,0.154522,-0.533516,0.56264
1259,0.142778,-0.509795,0.531009
1260,0.129348,-0.567549,0.485019
1261,-0.000843,-0.61927,0.394817
1262,-0.028656,-0.610552,0.329701
1263,-0.081063,-0.620491,0.238419
1264,-0.038854,-0.069813,-0.194954
1265,0.062744,1.355276,-0.847323
1266,-0.428436,2.198443,-1.248381
1267,-0.382672,-0.005749,-1.099056
1268,-0.221966,-0.658844,-0.63082
1269,-0.156779,-0.157609,0.26099
1270,0.275699,0.595517,0.965232
1271,0.461589,1.542955,0.881946
1272,0.619699,0.125936,0.488685
1273,0.456001,-0.463452,0.814464
1274,0.203888,-0.377686,0.818897
1275,0.087628,0.552954,-0.095861
1276,0.386048,0.482005,0.257663
1277,0.337711,0.161006,0.525554
1278,0.279745,0.018294,0.445419
1279,0.231155,-0.018439,0.286682
1280,0.127875,-0.081937,0.338275
1281,0.02,-0.294193,0.153735
1282,0.097336,-0.245308,0.097353
1283,0.128507,-0.262087,0.041016
1284,0.138753,-0.239846,0.107071
1285,0.080952,-0.23532,0.12399
1286,0.077011,-0.214669,0.015419
1287,0.157543,-0.076938,-0.223343
1288,0.238283,0.105415,-0.572787
1289,0.257845,0.145791,-0.580066
1290,0.191571,0.169719,-0.331441
1291,0.265884,0.302062,-0.303672
1292,0.395954,0.255223,-0.211084
1293,0.258152,0.347178,-0.153148
1294,0.116295,0.345491,-0.232098
1295,0.162046,0.51748,-0.163535
1296,0.216648,0.340059,0.177341
1297,-0.183379,0.516813,0.28102
1298,-0.380594,0.479066,0.305771
1299,-0.31029,0.447178,0.417957
1300,-0.299037,0.510257,0.342966
1301,-0.238815,0.529557,0.209898
1302,-0.030819,0.536575,0.238607
1303,0.16316,0.537066,0.434937
1304,0.422522,0.268845,0.240218
1305,0.472367,0.059985,0.163126
1306,0.245584,-0.070893,0.380306
1307,0.006864,-0.280575,0.707106
1308,0.050099,-0.572004,0.72558
1309,0.203723,-0.621279,0.525489
1310,0.202695,-0.589086,0.472346
1311,0.186557,-0.571999,0.431127
1312,0.079174,-0.668472,0.436133
1313,0.079695,-0.676893,0.422571
1314,0.028257,-0.739365,0.289192
1315,-0.051798,-0.513179,0.012286
1316,-0.078873,-0.542054,-0.034161
1317,0.088321,1.082898,-0.696263
1318,-0.351707,2.425642,-1.165309
1319,-0.507045,0.312819,-1.223671
1320,-0.089387,-0.80649,-0.108635
1321,0.051063,0.188805,0.446212
1322,0.296577,0.546566,0.868353
1323,0.337145,1.582402,0.739125
1324,0.759825,-0.316023,0.212051
1325,0.538601,-0.54669,0.845252
1326,-0.092397,-0.152243,0.18308
1327,0.091559,0.402126,-0.207823
1328,0.404688,0.536992,0.199815
1329,0.298737,0.083731,0.533791
1330,0.189701,0.086855,0.404983
1331,0.020663,0.090113,0.208704
1332,-0.070926,-0.146556,0.290925
1333,-0.110528,-0.276567,0.2378
1334,-0.091853,-0.305773,0.112112
1335,0.113284,-0.40281,0.034823
1336,0.137202,-0.406444,0.05008
1337,0.091182,-0.382007,0.086114
1338,0.217953,-0.096744,0.055321
1339,0.320059,0.06156,-0.17196
1340,0.318601,0.092753,-0.445242
1341,0.204475,0.158832,-0.408353
1342,0.181348,0.255049,-0.532358
1343,0.237626,0.284403,-0.40915
1344,0.339408,0.372134,-0.17606
1345,0.186558,0.351383,-0.249599
1346,0.197126,0.517719,-0.174332
1347,0.183218,0.352725,0.083889
1348,-0.29173,0.465208,0.273649
1349,-0.289501,0.463313,0.349549
1350,-0.197394,0.404507,0.460326
1351,-0.340579,0.588688,0.4792
1352,-0.336809,0.657214,0.428379
1353,-0.148805,0.645688,0.266111
1354,0.169579,0.491529,0.393978
1355,0.308858,0.34531,0.298341
1356,0.422419,0.078975,0.042386
1357,0.149875,-0.119853,0.563181
1358,0.119376,-0.517264,0.733266
1359,0.106582,-0.592129,0.694269
1360,0.185663,-0.652754,0.563767
1361,0.197596,-0.614951,0.515817
1362,0.124135,-0.617159,0.468296
1363,0.107072,-0.642788,0.465197
1364,0.093489,-0.668603,0.42073
1365,0.020734,-0.728757,0.198773
1366,-0.018186,-0.650644,-0.021324
1367,-0.116562,0.052356,-0.292319
1368,0.097591,1.814955,-0.752831
1369,-0.638004,1.919748,-1.15921
1370,-0.711134,0.881206,-1.159625
1371,-0.198978,-0.878195,-0.221905
1372,-0.165357,-0.106885,0.33208
1373,0.034584,0.337082,0.512188
1374,0.390254,1.48203,0.725444
1375,0.543942,0.171926,0.394155
1376,0.57067,-0.290832,0.684006
1377,0.156438,-0.144775,0.481816
1378,0.27403,0.58678,-0.098478
1379,0.40059,0.636256,0.092489
1380,0.337124,0.036227,0.39011
1381,0.287672,0.013057,0.31374
1382,0.217798,-0.032385,0.190613
1383,0.142896,-0.120968,0.298765
1384,0.118787,-0.205202,0.211045
1385,0.015727,-0.277354,0.108403
1386,-0.095811,-0.316063,0.058021
1387,0.06269,-0.391566,0.097356
1388,0.055087,-0.395195,0.057193
1389,0.202782,-0.208378,0.229614
1390,0.232121,0.042126,0.194888
1391,0.198513,0.106197,0.020548
1392,0.226877,0.269243,-0.390075
1393,0.208904,0.332327,-0.471344
1394,0.216194,0.334545,-0.483472
1395,0.404351,0.31053,-0.039519
1396,0.272453,0.410705,-0.195438
1397,0.187912,0.379021,-0.288797
1398,0.105553,0.344856,-0.244818
1399,0.02501,0.268669,-0.050061
1400,-0.006562,0.211227,0.085239
1401,0.008045,0.364524,0.421536
1402,-0.099216,0.838148,0.603556
1403,-0.296607,0.829619,0.545747
1404,-0.214937,0.717779,0.263732
1405,-0.081759,0.662952,0.377337
1406,0.220324,0.425598,0.495407
1407,0.349194,-0.036768,0.076511
1408,0.333878,-0.073926,0.027297
1409,0.252178,-0.036591,0.222878
1410,0.153046,-0.548575,0.767811
1411,0.164695,-0.816497,0.680376
1412,0.216277,-0.699722,0.680362
1413,0.18196,-0.560633,0.539789
1414,0.157927,-0.557832,0.543272
1415,0.117974,-0.573031,0.535789
1416,-0.022007,-0.610383,0.443717
1417,-0.120162,-0.673005,0.259882
1418,-0.113852,-0.454117,0.09569
1419,-0.025748,0.344966,-0.213974
1420,0.186163,2.06583,-0.990679
1421,-0.107969,2.908449,-1.275786
1422,-0.36863,-0.325064,-1.004682
1423,-0.071817,-0.805247,-0.22848
1424,-0.027666,-0.396761,0.147269
1425,0.871058,1.147466,1.273625
1426,0.58458,0.921092,0.808464
1427,0.508171,-0.21808,0.655873
1428,-0.054794,-0.553809,0.835999
1429,-0.074994,0.075228,0.019443
1430,0.122227,0.728104,-0.216108
1431,0.458138,0.11843,0.52809
1432,0.26896,0.026241,0.37007
1433,0.243764,0.086046,0.212455
1434,0.064063,-0.10649,0.281427
1435,0.099075,-0.345069,0.242395
1436,0.075492,-0.357269,0.197425
1437,0.009819,-0.348307,0.062999
1438,0.043538,-0.276091,0.072905
1439,0.095742,-0.294347,0.063517
1440,0.118764,-0.193677,0.177843
1441,0.197611,0.076404,0.058153
1442,0.208596,0.0787,0.021187
1443,0.193981,0.19685,-0.469114
1444,0.256337,0.239094,-0.351933
1445,0.265115,0.240526,-0.357679
1446,0.25427,0.281971,-0.210863
1447,0.334553,0.387006,-0.144208
1448,0.339017,0.386547,-0.136997
1449,0.111867,0.492532,-0.207853
1450,0.042062,0.359675,0.051984
1451,-0.006843,0.344113,0.214255
1452,-0.13467,0.242173,0.440853
1453,-0.045177,0.525573,0.532714
1454,-0.160364,0.596843,0.590259
1455,-0.258026,0.656698,0.322418
1456,-0.094253,0.6004,0.568422
1457,0.095928,0.552103,0.422503
1458,0.350525,0.009446,-0.008436
1459,0.297066,0.024468,0.187467
1460,0.14453,0.035789,0.412182
1461,0.103243,-0.443368,0.756514
1462,0.18703,-0.638727,0.576852
1463,0.192411,-0.568444,0.540045
1464,0.16867,-0.514083,0.518256
1465,0.173598,-0.514954,0.526574
1466,0.068488,-0.542632,0.497818
1467,0.029101,-0.695011,0.453119
1468,0.005891,-0.68185,0.282031
1469,-0.061543,-0.70254,0.180872
1470,-0.103484,-0.097383,-0.092332
1471,0.182265,1.608703,-0.777425
1472,-0.262111,2.621941,-1.426072
1473,-0.239869,-0.735948,-0.650554
1474,-0.20676,-0.572662,0.127673
1475,-0.133019,-0.003912,0.418532
1476,0.48149,1.498237,1.182318
1477,0.520585,0.271995,0.549111
1478,0.485825,-0.485547,0.470016
1479,-0.02379,-0.41164,0.779047
1480,0.228034,0.504635,-0.096522
1481,0.423595,0.874945,-0.088168
1482,0.217951,-0.125315,0.584504
1483,0.135263,-0.053417,0.191133
1484,0.142926,-0.037792,0.085081
1485,0.128158,-0.285753,0.335933
1486,0.050642,-0.301592,0.171929
1487,0.002899,-0.311284,0.106969
1488,0.057414,-0.331099,0.09254
1489,0.121392,-0.282539,0.069929
1490,0.11788,-0.260087,0.040191
1491,0.144917,-0.149986,0.174174
1492,0.107385,0.082321,0.04945
1493,0.116658,0.08334,0.009047
1494,0.216901,0.2443,-0.715407
1495,0.421825,0.287933,-0.322143
1496,0.198737,0.282991,-0.229998
1497,0.286075,0.217256,-0.144533
1498,0.351374,0.286594,0.044813
1499,0.116867,0.349906,-0.396098
1500,0.037506,0.520114,-0.141532
1501,0.135117,0.510908,-0.058167
1502,0.058337,0.426774,0.240353
1503,-0.00704,0.3189,0.446005
1504,0.011614,0.425169,0.55062
1505,-0.183414,0.708236,0.547336
1506,-0.236198,0.774321,0.260027
1507,-0.133726,0.73927,0.20522
1508,0.134817,0.531644,0.487043
1509,0.279486,0.085987,0.462413
1510,0.404597,-0.165376,0.301727
1511,0.308313,-0.198896,0.38908
1512,0.139453,-0.41788,0.530465
1513,0.127454,-0.633982,0.572125
1514,0.191326,-0.598194,0.55978
1515,0.18146,-0.601883,0.526331
1516,0.125167,-0.582538,0.513274
1517,0.085406,-0.598171,0.546028
1518,0.093128,-0.586827,0.506379
1519,0.027394,-0.669034,0.324783
1520,-0.033275,-0.503288,0.154622
1521,-0.029362,0.114925,-0.054781
1522,0.065739,1.391055,-0.787535
1523,0.020946,2.438581,-1.039119
1524,-0.586824,0.233513,-1.047149
1525,-0.199775,-0.883602,-0.42927
1526,-0.108108,-0.626522,-0.066837
1527,0.593858,0.954334,1.284449
1528,0.580836,1.4901,0.77747
1529,0.587052,0.316888,0.558014
1530,0.411611,-0.560165,1.132838
1531,0.039257,-0.187226,0.61573
1532,0.102128,0.338902,0.110548
1533,0.357311,0.252437,0.541779
1534,0.170716,-0.043139,0.350077
1535,0.131899,-0.068406,0.168155
1536,0.17649,-0.075797,0.323141
1537,0.170493,-0.290277,0.25821
1538,0.129542,-0.393106,0.229796
1539,0.083284,-0.338366,0.14454
1540,0.103439,-0.287943,0.047688
1541,0.145389,-0.220829,0.001038
1542,0.217913,-0.181146,0.044235
1543,0.044552,-0.038523,0.107111
1544,0.05267,-0.038475,0.068002
1545,0.199394,0.2967,-0.657471
1546,0.347442,0.30817,-0.562678
1547,0.326159,0.252339,-0.157134
1548,0.211088,0.293016,-0.257556
1549,0.430823,0.280565,0.038231
1550,0.352669,0.313502,-0.032514
1551,0.013401,0.407498,-0.255251
1552,0.041351,0.330277,-0.09539
1553,0.107996,0.322428,0.05226
1554,-0.023972,0.30964,0.27877
1555,-0.09376,0.337769,0.505415
1556,-0.068662,0.534553,0.549445
1557,-0.287938,0.840779,0.530535
1558,-0.114101,0.7707,0.111804
1559,-0.000231,0.730309,0.217616
1560,0.264417,0.276744,0.445446
1561,0.348633,0.172464,0.500079
1562,0.455447,-0.077027,0.374597
1563,0.187781,-0.325138,0.548567
1564,0.100053,-0.458285,0.621807
1565,0.007699,-0.628462,0.558717
1566,0.202911,-0.569826,0.55992
1567,0.220637,-0.526727,0.521502
1568,0.095398,-0.514663,0.540127
1569,0.031567,-0.58753,0.583711
1570,0.00477,-0.607285,0.501253
1571,0.028466,-0.57471,0.40055
1572,-0.061444,-0.565045,0.121841
1573,-0.058331,0.047386,-0.108466
1574,0.006946,0.628893,-0.454793
1575,-0.324989,2.651329,-1.212661
1576,-0.585545,0.250589,-1.023577
1577,-0.397532,-0.754693,-0.619555
1578,0.045563,-0.399285,0.265766
1579,0.508195,0.366589,1.116979
1580,0.619526,1.028569,1.269742
1581,0.6337,0.473038,0.309938
1582,0.301426,-0.665016,1.123296
1583,-0.047092,-0.589447,0.830894
1584,-0.176015,0.435863,-0.311274
1585,0.314809,0.284676,0.363855
1586,0.471621,0.032943,0.495872
1587,0.311531,0.052302,0.298127
1588,0.130696,-0.150935,0.332257
1589,0.053993,-0.277628,0.304124
1590,-0.018939,-0.387896,0.20951
1591,0.044159,-0.341116,0.151188
1592,0.066891,-0.299321,0.078586
1593,0.110004,-0.206679,0.053973
1594,0.204343,-0.074098,0.151455
1595,0.124257,0.006172,0.090583
1596,0.017455,0.054734,-0.016946
1597,0.29137,0.260189,-0.687621
1598,0.375385,0.262339,-0.497505
1599,0.301621,0.265784,-0.12155
1600,0.345423,0.229008,-0.095845
1601,0.419853,0.17752,0.005716
1602,0.145424,0.312346,-0.215113
1603,-0.039779,0.303378,-0.219485
1604,-0.071096,0.297216,-0.116125
1605,0.094245,0.318866,0.052276
1606,0.043855,0.413394,0.233157
1607,-0.03804,0.228416,0.369971
1608,-0.093317,0.503099,0.619934
1609,-0.2136,0.558792,0.564199
1610,-0.398922,0.789125,0.420497
1611,-0.049452,0.758692,0.312527
1612,0.188021,0.416604,0.590627
1613,0.32738,0.038758,0.527644
1614,0.377105,-0.015781,0.088811
1615,0.172128,-0.338334,0.246933
1616,0.150631,-0.365805,0.549741
1617,0.072045,-0.512159,0.666169
1618,0.106551,-0.633353,0.60394
1619,0.195133,-0.577663,0.56193
1620,0.1651,-0.482056,0.509346
1621,0.069203,-0.549391,0.540764
1622,0.027101,-0.619549,0.541509
1623,0.007786,-0.62551,0.332876
1624,-0.068289,-0.648026,0.128451
1625,-0.108588,-0.197826,-0.019203
1626,0.151422,1.050488,-0.567758
1627,-0.00507,2.811328,-1.122375
1628,-0.436666,2.0781,-1.247133
1629,-0.235645,-0.973641,-0.473259
1630,0.011206,-0.052674,0.428982
1631,0.326562,0.351126,0.830233
1632,0.501059,1.329842,1.207658
1633,0.61852,-0.061836,0.265385
1634,0.609735,-0.059654,0.273707
1635,0.150886,-0.50008,0.940068
1636,0.184227,0.581244,-0.272146
1637,0.195413,0.57042,-0.299401
1638,0.556358,0.364635,0.32738
1639,0.210908,-0.035273,0.385612
1640,0.044887,-0.018257,0.190935
1641,-0.131275,-0.174232,0.334606
1642,0.059162,-0.282887,0.307769
1643,0.158316,-0.250237,0.282324
1644,0.118408,-0.128317,0.238663
1645,0.014786,-0.242375,0.139719
1646,0.092852,-0.279142,0.136785
1647,0.212664,-0.009535,0.066516
1648,0.190834,0.039551,-0.012765
1649,0.213724,0.078878,-0.289008
1650,0.325394,0.210571,-0.387876
1651,0.234651,0.231452,-0.286258
1652,0.219054,0.349006,-0.389279
1653,0.441736,0.149043,-0.016173
1654,0.35587,0.277104,0.068039
1655,0.204646,0.339811,-0.115984
1656,0.094709,0.462932,-0.063716
1657,0.037841,0.396449,0.169982
1658,-0.083195,0.387026,0.198088
1659,-0.221327,0.086035,0.376224
1660,-0.032172,0.434868,0.51478
1661,-0.07185,0.494918,0.521755
1662,-0.123685,0.677316,0.322309
1663,-0.036918,0.604468,0.409175
1664,0.166505,0.536671,0.307435
1665,0.46276,0.193934,0.062318
1666,0.302275,-0.038779,0.164834
1667,0.11214,-0.190657,0.603477
1668,0.11967,-0.417521,0.726101
1669,0.206022,-0.562851,0.640871
1670,0.277996,-0.511283,0.563752
1671,0.217268,-0.472128,0.529721
1672,0.127902,-0.48278,0.532906
1673,0.029396,-0.541844,0.500215
1674,0.008544,-0.61732,0.433844
1675,-0.035629,-0.653112,0.270171
1676,-0.062294,-0.579606,0.147924
1677,-0.112539,-0.075831,0.101406
1678,0.121252,2.004053,-0.564217
1679,0.103179,1.997106,-0.570602
1680,-0.291015,0.33208,-1.220049
1681,0.084838,-0.820074,-0.398751
1682,0.105997,-0.812365,-0.393513
1683,0.460771,0.308934,0.778043
1684,0.583808,1.618555,1.103697
1685,0.546031,1.774898,0.852372
1686,0.538146,-0.409049,0.744947
1687,-0.142822,-0.703636,0.946875
1688,-0.599392,-0.552239,0.03178
1689,0.122226,0.509383,-0.161343
1690,0.49766,0.037332,0.783228
1691,0.388035,0.01294,0.604988
1692,0.288883,0.061093,0.142267
1693,0.197047,0.023601,0.408791
1694,0.016716,-0.232033,0.374793
1695,0.035692,-0.295612,0.239821
1696,0.049255,-0.253006,0.128314
1697,0.061983,-0.213363,0.02261
1698,0.145498,-0.210678,0.059175
1699,0.120843,-0.202177,0.076159
1700,0.101811,-0.145342,0.035133
1701,0.328733,0.195705,-0.55619
1702,0.331953,0.187515,-0.573085
1703,0.259925,0.149243,-0.387282
1704,0.203011,0.149046,-0.205902
1705,0.364962,0.19844,-0.101645
1706,0.376971,0.265018,0.050582
1707,0.000376,0.351529,-0.353641
1708,0.009273,0.320383,-0.230488
1709,0.078929,0.260803,-0.078397
1710,0.01561,0.322234,0.218224
1711,-0.030577,0.493463,0.405314
1712,-0.069566,0.883915,0.659243
1713,-0.345326,0.851621,0.430766
1714,-0.237646,0.730462,0.211166
1715,-0.081535,0.580868,0.436003
1716,0.147716,0.368234,0.427206
1717,0.341682,0.078895,0.248465
1718,0.410625,-0.054201,-0.010122
1719,0.13046,-0.169306,0.306424
1720,0.124644,-0.363801,0.568216
1721,0.141834,-0.42531,0.702891
1722,0.342723,-0.675828,0.74212
1723,0.217021,-0.672698,0.590562
1724,0.086044,-0.600738,0.470412
1725,0.145711,-0.687699,0.52466
1726,0.066306,-0.682674,0.483838
1727,0.006402,-0.646898,0.353417
1728,-0.048311,-0.651411,0.172989
1729,0.005787,0.369049,-0.300884
1730,0.050798,1.108805,-0.787577
1731,-0.328634,2.773003,-1.341066
1732,-0.502709,-0.498874,-0.420393
1733,-0.386614,-0.862888,-0.094456
1734,-0.249279,0.595885,0.205197
1735,0.925948,1.812305,1.013821
1736,0.943329,0.323394,0.550978
1737,0.341422,-0.964623,1.152491
1738,0.146628,-0.563871,0.737733
1739,0.379499,0.565917,0.192765
1740,0.550837,0.543266,0.543965
1741,0.365881,0.213892,0.362114
1742,0.235483,0.138503,0.13647
1743,0.108897,-0.08662,0.319219
1744,0.082911,-0.266536,0.419095
1745,-0.048001,-0.39607,0.238382
1746,-0.024089,-0.290247,0.145462
1747,0.148257,-0.233609,0.112851
1748,0.239005,-0.19741,0.083733
1749,0.222276,-0.371172,0.134231
1750,0.161902,-0.295194,0.186924
1751,0.15425,-0.170363,0.152766
1752,-0.000775,0.133864,-0.418011
1753,0.093516,0.265777,-0.484939
1754,0.195172,0.301071,-0.408408
1755,0.522634,0.269325,-0.149126
1756,0.432948,0.327746,0.082471
1757,0.279313,0.543236,0.026109
1758,0.202623,0.698613,-0.062646
1759,0.387872,0.481497,0.155413
1760,0.210915,0.376646,0.237598
1761,-0.260586,0.162884,0.117359
1762,-0.313012,0.10659,0.247165
1763,-0.007087,0.39857,0.399908
1764,0.019196,0.803788,0.604239
1765,-0.1482,0.781926,0.496183
1766,-0.144916,0.639224,0.5879
1767,0.044839,0.498192,0.520521
1768,0.293559,0.294939,0.310502
1769,0.321323,0.182709,0.205189
1770,0.171173,-0.050882,0.228967
1771,0.091122,-0.384,0.67282
1772,0.095235,-0.480332,0.711295
1773,0.095801,-0.635143,0.628794
1774,0.191842,-0.631223,0.584745
1775,0.175623,-0.614505,0.54667
1776,0.180718,-0.606651,0.522062
1777,0.129081,-0.65229,0.499077
1778,0.089265,-0.62997,0.380225
1779,-0.012539,-0.664162,0.294618
1780,-0.045961,-0.574738,0.16482
1781,-0.030381,0.044476,-0.125785
1782,0.214489,2.732779,-0.849424
1783,-0.181476,2.433447,-1.052024
1784,-0.495903,0.041917,-1.170488
1785,-0.001045,-0.687151,-0.030306
1786,0.147944,0.468985,0.456003
1787,0.431947,0.893497,0.738232
1788,0.354825,1.282716,0.620794
1789,0.42354,-0.740555,0.536207
1790,0.084606,-0.879456,0.770019
1791,-0.150028,-0.290297,0.379437
1792,0.278671,0.986338,-0.008667
1793,0.421134,0.331827,0.59672
1794,0.410663,-0.152803,0.524616
1795,0.465807,-0.007067,0.349354
1796,0.189105,-0.133814,-0.032273
1797,-0.022533,-0.224168,0.195042
1798,-0.044496,-0.287395,0.076942
1799,-0.063926,-0.339798,0.024027
1800,0.042243,-0.303761,0.018734
1801,0.075932,-0.289562,-0.002193
1802,0.114474,-0.344016,0.005255
1803,0.179901,-0.260159,0.314005
1804,0.098297,0.134534,0.149918
1805,0.161068,0.237002,-0.072639
1806,0.439809,0.216286,-0.830178
1807,0.529965,0.228239,-0.117071
1808,0.376343,0.249753,-0.201489
1809,0.319913,0.170524,0.054431
1810,0.3043,0.337524,-0.028808
1811,0.144074,0.380679,-0.161706
1812,0.098243,0.507542,-0.002923
1813,0.186139,0.466154,0.265004
1814,0.055429,0.429316,0.348322
1815,-0.211082,0.232999,0.337778
1816,-0.253622,0.548966,0.486949
1817,-0.264347,0.693615,0.500431
1818,-0.309796,0.865812,0.3955
1819,0.026391,0.626812,0.33555
1820,0.1278,0.568842,0.533561
1821,0.380881,0.195138,0.494379
1822,0.473432,-0.193796,0.094944
1823,0.336378,-0.256739,0.182119
1824,0.144638,-0.464498,0.623351
1825,0.104282,-0.528852,0.691525
1826,0.190195,-0.640438,0.686345
1827,0.16779,-0.678866,0.56535
1828,0.174489,-0.666294,0.556502
1829,0.171762,-0.625708,0.518774
1830,0.10837,-0.651823,0.522434
1831,0.105028,-0.6816,0.464888
1832,0.043836,-0.697101,0.27324
1833,-0.107774,-0.205783,-0.082626
1834,0.101274,1.09065,-0.854577
1835,0.182526,2.250533,-1.086655
1836,-0.706604,0.674955,-1.095672
1837,-0.11484,-1.032377,-0.221174
1838,-0.14401,-0.985702,0.077518
1839,0.369657,1.148209,1.105334
1840,0.558029,2.184625,1.034296
1841,0.930572,-0.346124,0.457395
1842,0.134469,-0.850148,1.105409
1843,-0.162168,-0.72357,0.763154
1844,0.219075,0.900212,-0.170051
1845,0.549703,0.538948,0.547907
1846,0.397813,0.056574,0.392902
1847,0.418207,0.034487,0.288933
1848,0.348922,-0.095546,0.500043
1849,0.012447,-0.304536,0.248809
1850,-0.017001,-0.320573,0.202653
1851,-0.097487,-0.369268,0.173611
1852,0.007094,-0.345367,0.104354
1853,0.054136,-0.358715,0.06607
1854,0.234514,-0.372093,0.234525
1855,0.10397,-0.017457,0.167581
1856,0.097998,0.059683,0.028277
1857,0.183804,0.235256,-0.913419
1858,0.463847,0.152182,-0.170466
1859,0.340166,0.204757,-0.230468
1860,0.347973,0.247613,-0.139685
1861,0.305651,0.434307,0.05701
1862,0.219068,0.434499,-0.172153
1863,0.202964,0.526221,-0.13623
1864,0.270901,0.465665,0.257739
1865,0.199729,0.474297,0.299264
1866,-0.472756,0.450485,0.462552
1867,-0.511753,0.54614,0.488575
1868,-0.508674,0.648284,0.446259
1869,-0.239144,0.793056,0.290445
1870,-0.157723,0.769026,0.255211
1871,0.061682,0.835644,0.420091
1872,0.362837,0.283305,0.490535
1873,0.48952,0.16472,0.556386
1874,0.593692,-0.091152,0.329048
1875,0.249726,-0.592191,0.52275
1876,0.147093,-0.668878,0.673485
1877,0.033764,-0.744521,0.789879
1878,0.113528,-0.681874,0.589689
1879,0.190514,-0.633529,0.537802
1880,0.209993,-0.618373,0.573088
1881,0.15723,-0.690602,0.580791
1882,0.117811,-0.665153,0.438574
1883,-0.027758,-0.670845,0.225121
1884,-0.107683,-0.261755,0.027712
1885,-0.00622,0.774966,-0.470785
1886,0.045835,2.86242,-0.866237
1887,-0.683839,1.31538,-1.181866
1888,-0.361746,-0.900456,-0.282021
1889,-0.306012,-1.126727,-0.141916
1890,0.474373,1.406527,0.676036
1891,0.837418,2.192246,0.935439
1892,0.794017,-0.6494,0.809372
1893,0.069207,-1.105506,1.326338
1894,0.216723,0.713762,-0.229733
1895,0.368407,1.106662,-0.069196
1896,0.545468,0.35029,0.793575
1897,0.295276,0.151847,0.341842
1898,0.24837,0.112241,0.289499
1899,0.185226,-0.013153,0.316276
1900,0.148288,-0.291599,0.270992
1901,0.152131,-0.246597,0.09981
1902,0.229326,-0.266145,0.247547
1903,0.255516,-0.345815,0.338809
1904,0.115381,-0.294724,0.041092
1905,0.005814,-0.281342,-0.060318
1906,0.091684,-0.26452,0.141036
1907,0.12073,-0.163713,0.185715
1908,0.15451,0.139212,0.077152
1909,0.236131,0.275877,-0.629931
1910,0.321087,0.313881,-0.6163
1911,0.492203,0.16779,-0.142354
1912,0.555095,0.13124,0.014158
1913,0.439876,0.352902,-0.023741
1914,0.192121,0.505497,-0.188283
1915,0.313075,0.407253,0.084795
1916,0.309545,0.386957,0.286433
1917,-0.155278,0.450785,0.42847
1918,-0.316737,0.420748,0.439775
1919,-0.352013,0.489373,0.499536
1920,-0.107008,0.745199,0.41389
1921,-0.174735,0.819758,0.427853
1922,-0.105615,0.737708,0.439105
1923,0.090011,0.696525,0.623489
1924,0.241594,0.317706,0.307248
1925,0.36394,0.011347,0.200545
1926,0.283248,-0.186709,0.262837
1927,0.122418,-0.447399,0.586424
1928,0.152446,-0.713784,0.719394
1929,0.276199,-0.802092,0.665006
1930,0.292832,-0.776728,0.667877
1931,0.272832,-0.764077,0.637133
1932,0.262632,-0.682487,0.570688
1933,0.249734,-0.661585,0.527836
1934,0.279393,-0.739141,0.55576
1935,0.035347,-0.624077,0.360208
1936,-0.050058,-0.360266,0.134362
1937,-0.091697,0.321312,-0.222631
1938,0.000988,2.243548,-0.997973
1939,-0.505946,2.352663,-1.220746
1940,-0.521502,-0.410882,-0.692295
1941,-0.19657,-1.099084,-0.266398
1942,0.293975,1.07021,0.770745
1943,0.592801,1.778531,0.93472
1944,0.661376,1.245913,0.753021
1945,0.285842,-0.917779,1.218136
1946,0.272057,-0.918776,1.22566
1947,0.153905,0.358371,0.070137
1948,0.608839,0.969263,0.435232
1949,0.736255,0.65248,0.698981
1950,0.325069,0.18827,0.376971
1951,0.30754,-0.035546,0.103679
1952,0.117082,-0.15102,0.421173
1953,-0.059976,-0.299585,0.091252
1954,0.018494,-0.508842,0.151015
1955,0.05534,-0.517116,0.165708
1956,0.029094,-0.402124,0.146557
1957,0.045269,-0.346455,0.194483
1958,0.140978,-0.26706,0.231863
1959,0.186535,-0.042443,0.216039
1960,0.195658,0.050021,-0.274943
1961,0.274529,0.097014,-0.589068
1962,0.492752,0.232216,-0.394933
1963,0.2837,0.253185,-0.215551
1964,0.221534,0.262629,-0.115425
1965,0.193699,0.463481,-0.340938
1966,0.089568,0.419384,-0.412994
1967,0.050758,0.248867,-0.152298
1968,-0.048384,0.173981,0.017831
1969,0.001444,0.244542,0.10585
1970,0.196607,0.580332,0.471677
1971,0.056651,0.839089,0.807446
1972,-0.495594,0.972796,0.66725
1973,-0.696702,0.925643,0.414254
1974,-0.348685,0.809985,0.350799
1975,0.147626,0.546349,0.265582
1976,0.540826,0.435217,0.4674
1977,0.673138,0.187583,0.194236
1978,0.206339,-0.175904,0.260771
1979,0.053069,-0.23008,0.564301
1980,0.053567,-0.745594,0.758218
1981,0.203469,-0.758003,0.757511
1982,0.252606,-0.698256,0.812441
1983,0.177758,-0.611775,0.60255
1984,0.189805,-0.692513,0.639001
1985,0.159859,-0.688431,0.593991
1986,0.09252,-0.644587,0.452108
1987,0.039451,-0.542177,0.089898
1988,-0.028115,-0.319809,-0.023089
1989,0.131503,2.044441,-1.044731
1990,-0.06203,3.046113,-1.311772
1991,-0.625632,2.353464,-1.358694
1992,-0.348825,-0.896091,-0.224286
1993,-0.245502,0.60939,0.457854
1994,-0.207392,0.614842,0.445294
1995,0.756752,0.480745,0.585771
1996,0.530514,-0.877368,1.015745
1997,0.384585,-0.81169,1.219288
1998,0.314947,0.025869,0.367644
1999,0.627343,0.935645,0.058891
2000,0.535511,0.449474,0.614377
2001,0.240876,0.203206,0.360619
2002,0.027834,0.088913,0.284257
2003,-0.111228,-0.107266,0.312187
2004,-0.054107,-0.366074,0.224078
2005,0.194089,-0.422329,0.274933
2006,0.236601,-0.428951,0.198773
2007,0.329832,-0.366033,0.161538
2008,0.222339,-0.138595,0.111868
2009,0.179115,-0.120952,0.08757
2010,0.155678,-0.058152,0.223846
2011,0.117538,-0.090048,0.261692
2012,0.029792,-0.080903,0.041278
2013,0.043541,0.257278,-0.610034
2014,0.158971,0.336992,-0.403817
2015,0.469865,0.243058,-0.249591
2016,0.421572,0.225769,0.117023
2017,0.145393,0.441923,-0.268414
2018,0.082453,0.362471,-0.244483
2019,0.276563,0.269245,0.149082
2020,0.13371,0.495246,0.248746
2021,-0.081384,0.481902,0.42833
2022,-0.370918,0.568222,0.642052
2023,-0.392119,0.680221,0.54182
2024,-0.333456,0.672424,0.420661
2025,-0.276234,0.777859,0.354063
2026,-0.068542,0.788979,0.289133
2027,0.149759,0.697772,0.260216
2028,0.549661,0.257309,0.030629
2029,0.4678,0.018646,0.290878
2030,0.155251,-0.13113,0.645505
2031,-0.012413,-0.511873,0.886243
2032,0.151194,-0.787112,0.848301
2033,0.171201,-0.739529,0.710533
2034,0.133649,-0.722858,0.564476
2035,0.14917,-0.64836,0.67508
2036,0.1909,-0.683175,0.647902
2037,0.177689,-0.684346,0.566306
2038,0.072978,-0.628778,0.376938
2039,0.052822,-0.519304,0.201822
2040,-0.046224,0.127482,-0.104314
2041,-0.146712,2.9947,-1.101437
2042,-0.163279,3.001785,-1.080991
2043,-0.482135,-0.05771,-1.043595
2044,-0.045184,-0.728217,0.035607
2045,-0.141928,-0.071223,0.352239
2046,0.639204,1.069272,1.149157
2047,0.454995,1.996364,0.762126
2048,0.66566,-0.276564,0.38237
2049,0.095344,-0.793245,1.248308
2050,0.077696,0.550771,-0.311382
2051,0.353373,1.004557,-0.190522
2052,0.56827,0.404444,0.716098
2053,0.348994,0.136847,0.476547
2054,0.293494,0.078747,0.386514
2055,-0.05755,-0.048268,0.378372
2056,-0.012849,-0.313238,0.220752
2057,0.030996,-0.35022,0.154048
2058,0.122896,-0.31362,0.167615
2059,0.114873,-0.259889,0.169085
2060,0.126791,-0.233365,0.132123
2061,0.286492,-0.249391,0.167247
2062,0.272123,-0.226439,0.176361
2063,0.24938,-0.06629,0.279894
2064,0.020254,0.276532,-0.880473
2065,0.115908,0.284629,-0.651929
2066,0.257439,0.276207,-0.248262
2067,0.313088,0.195061,-0.005562
2068,0.310717,0.254963,0.040183
2069,0.095901,0.453869,-0.113351
2070,0.039621,0.456306,-0.197727
2071,0.123351,0.343128,0.016707
2072,0.139053,0.442703,0.231252
2073,-0.074056,0.453654,0.428143
2074,-0.30367,0.452495,0.634542
2075,-0.362914,0.605477,0.684947
2076,-0.462777,0.838651,0.369184
2077,-0.270745,0.749826,0.311919
2078,0.024422,0.774429,0.507953
2079,0.347778,0.374837,0.33994
2080,0.509819,-0.098653,0.114363
2081,0.379082,-0.168714,0.239173
2082,0.175916,-0.331663,0.563147
2083,0.13987,-0.684743,0.828821
2084,0.194717,-0.700549,0.777957
2085,0.227859,-0.707246,0.603942
2086,0.179617,-0.578671,0.564203
2087,0.166395,-0.57996,0.577603
2088,0.107324,-0.622366,0.570216
2089,0.051415,-0.63107,0.425
2090,0.024578,-0.661843,0.343348
2091,-0.056549,-0.366744,0.159912
2092,0.144328,1.737161,-0.860612
2093,-0.029033,2.971756,-1.202692
2094,-0.704825,1.154954,-1.388008
2095,-0.169138,-1.025193,-0.039186
2096,-0.126031,-0.831596,0.33725
2097,0.489998,0.981963,1.232836
2098,0.350286,1.860415,0.667175
2099,0.473263,0.765222,0.448532
2100,-0.014186,-0.347777,0.728373
2101,0.032103,-0.0646,0.284742
2102,0.172227,0.491818,-0.09895
2103,0.488761,0.218953,0.787833
2104,0.300553,0.052783,0.585365
2105,0.256197,0.094283,0.462271
2106,0.075691,-0.057201,0.369993
2107,0.000824,-0.18555,0.309821
2108,-0.051873,-0.294092,0.224722
2109,0.100304,-0.366313,0.275776
2110,0.105499,-0.310451,0.253766
2111,0.048238,-0.276378,0.225721
2112,0.16669,-0.234875,0.158468
2113,0.244208,-0.184699,0.15256
2114,0.229351,-0.105848,0.179389
2115,0.11334,0.147074,-0.193272
2116,0.222182,0.307503,-0.824777
2117,0.20794,0.279239,-0.131081
2118,0.124655,0.365149,-0.164198
2119,0.23442,0.288685,0.066699
2120,0.208419,0.332888,0.219604
2121,-0.089825,0.453254,-0.373131
2122,-0.037264,0.32702,-0.181233
2123,0.068833,0.339894,0.015218
2124,0.175131,0.352323,0.313849
2125,0.200748,0.465511,0.575758
2126,0.137353,0.657877,0.70822
2127,-0.542241,0.822514,0.553961
2128,-0.408615,0.639064,0.283035
2129,-0.23709,0.585872,0.525259
2130,0.090642,0.256278,0.802515
2131,0.298978,-0.195917,0.026118
2132,0.271706,-0.284683,-0.048169
2133,0.097173,-0.286849,0.412493
2134,0.148728,-0.37596,0.827104
2135,0.291165,-0.47211,0.840355
2136,0.412139,-0.629686,0.701644
2137,0.203093,-0.65754,0.531732
2138,0.143396,-0.609064,0.593878
2139,0.022151,-0.609335,0.590197
2140,-0.123091,-0.600352,0.404861
2141,-0.168688,-0.60939,0.247295
2142,-0.08671,0.161748,-0.074819
2143,-0.018127,0.717961,-0.521781
2144,-0.12067,2.860528,-1.087973
2145,-0.198551,-0.142131,-0.79926
2146,-0.04177,-0.930217,0.028097
2147,-0.133279,-0.599679,0.342282
2148,0.521802,1.071099,1.178683
2149,0.490908,1.462336,0.789827
2150,0.506185,0.436567,0.639349
2151,-0.122473,-0.503692,1.041916
2152,-0.144562,-0.048241,0.049469
2153,0.528492,0.826507,0.064645
2154,0.479841,0.073458,0.708328
2155,0.302508,-0.024902,0.561929
2156,0.272415,-0.099562,0.386659
2157,0.107158,-0.052991,0.467247
2158,-0.157907,-0.211852,0.370764
2159,-0.171684,-0.333466,0.296327
2160,0.027096,-0.397792,0.296374
2161,0.064745,-0.357084,0.264243
2162,0.097322,-0.335979,0.250593
2163,0.201734,-0.102289,0.243041
2164,0.073928,-0.026325,0.157622
2165,0.083013,-0.027602,0.120379
2166,0.119903,0.383963,-0.924051
2167,0.310944,0.227409,-0.154367
2168,0.089301,0.269671,-0.412568
2169,0.150698,0.357551,-0.031348
2170,0.31079,0.262765,0.26826
2171,0.047414,0.34335,0.099122
2172,-0.136346,0.544695,-0.105935
2173,0.050509,0.404098,0.021582
2174,0.087231,0.320755,0.227253
2175,-0.106748,0.222247,0.244023
2176,0.182256,0.57962,0.565131
2177,0.03137,0.729515,0.690582
2178,-0.318527,0.849608,0.42735
2179,-0.174097,0.877296,0.351025
2180,0.036319,0.76323,0.637699
2181,0.287311,0.255037,0.776435
2182,0.145301,-0.227206,-0.195225
2183,0.17424,-0.20913,0.062004
2184,0.15918,-0.193769,0.602461
2185,0.123984,-0.34786,0.69463
2186,0.167234,-0.625276,0.870949
2187,0.171166,-0.66066,0.81171
2188,0.14836,-0.67225,0.752389
2189,0.099599,-0.663451,0.696413
2190,-0.005356,-0.606781,0.656402
2191,0.003867,-0.606416,0.565974
2192,-0.115409,-0.550126,0.220195
2193,-0.029979,-0.009917,-0.017731
2194,-0.016474,0.427882,-0.292221
2195,0.023996,2.109085,-0.971665
2196,-0.216232,0.483819,-1.183263
2197,-0.082313,-0.494148,-0.234471
2198,-0.166477,-0.371544,0.159007
2199,0.643574,1.548839,1.349194
2200,0.653555,1.253376,0.871697
2201,0.671844,-0.224992,0.813527
2202,-0.005675,-0.213852,0.46302
2203,0.148916,0.232927,0.120194
2204,0.323585,0.778936,-0.027484
2205,0.459041,0.216809,0.706317
2206,0.276835,0.120207,0.43158
2207,0.254284,0.15961,0.266393
2208,0.065195,-0.039824,0.505563
2209,-0.019981,-0.339625,0.390534
2210,-0.094163,-0.459752,0.23458
2211,0.051259,-0.28687,0.23449
2212,0.236495,-0.208322,0.132
2213,0.291508,-0.189891,0.163934
2214,0.292788,-0.13928,0.283277
2215,0.197217,-0.065255,0.32811
2216,0.081241,-0.041183,0.036124
2217,0.014622,0.248354,-0.595286
2218,0.188326,0.403833,-0.500381
2219,0.353876,0.39377,-0.314085
2220,0.264796,0.206278,0.04625
2221,0.336638,0.254427,0.223132
2222,0.2544,0.414454,0.056105
2223,0.103015,0.54025,-0.050264
2224,0.007528,0.310566,0.135662
2225,-0.003749,0.308233,0.211036
2226,-0.04479,0.354345,0.286465
2227,-0.081009,0.528323,0.597081
2228,-0.142307,0.608389,0.649815
2229,-0.279243,0.673395,0.38155
2230,-0.193077,0.736704,0.365336
2231,-0.087189,0.664437,0.62447
2232,0.178376,0.219909,0.26316
2233,0.378897,-0.037723,0.096673
2234,0.226896,-0.063749,0.385638
2235,0.103613,-0.237304,0.691195
2236,0.107077,-0.356552,0.826823
2237,0.16972,-0.571129,0.813212
2238,0.199625,-0.625521,0.69079
2239,0.175371,-0.559249,0.685794
2240,0.115557,-0.51531,0.686354
2241,0.078452,-0.530422,0.619965
2242,0.07667,-0.5184,0.561391
2243,-0.031426,-0.486671,0.307998
2244,-0.134979,-0.329707,0.036088
2245,-0.141818,-0.002026,-0.177123
2246,0.13914,3.044229,-1.230046
2247,-0.535249,1.294832,-1.247945
2248,-0.275628,0.027341,-0.963979
2249,0.09992,-1.023157,0.229158
2250,0.222613,0.179317,0.827305
2251,0.512489,0.832751,1.201684
2252,0.418949,1.386537,1.002489
2253,0.388218,0.205146,0.410209
2254,-0.100829,-0.480266,0.959275
2255,-0.31724,-0.41691,0.5553
2256,0.337776,0.621693,0.042656
2257,0.571711,-0.007747,0.697327
2258,0.540777,-0.059322,0.649726
2259,0.332713,-0.049104,0.323361
2260,0.071406,-0.203545,0.378533
2261,0.029585,-0.299299,0.3377
2262,-0.117322,-0.440586,0.206467
2263,0.094308,-0.293578,0.218453
2264,0.17486,-0.27404,0.229207
2265,0.211549,-0.110141,0.31779
2266,0.057619,0.139217,0.175252
2267,-0.026194,0.102638,0.035982
2268,0.048959,0.196554,-0.308316
2269,0.347094,0.290265,-0.500486
2270,0.274472,0.287985,-0.013721
2271,0.091841,0.374638,-0.219986
2272,0.283317,0.273335,0.21243
2273,0.29372,0.414085,0.125943
2274,0.002575,0.41755,-0.162175
2275,-0.035003,0.296156,-0.231079
2276,-0.034756,0.308198,-0.105099
2277,0.073112,0.154825,0.145618
2278,0.106212,0.33425,0.388932
2279,0.137174,0.442706,0.579046
2280,-0.106602,0.701804,0.77519
2281,-0.355439,0.573439,0.653117
2282,-0.300272,0.623251,0.168435
2283,0.091792,0.041137,0.980859
2284,0.255776,0.045893,0.836733
2285,0.315021,0.037398,0.429138
2286,0.132443,-0.189788,0.052007
2287,0.144273,-0.181556,0.3968
2288,0.237303,-0.218471,0.687444
2289,0.324773,-0.559997,0.741761
2290,0.29279,-0.625149,0.711669
2291,0.182061,-0.624094,0.630268
2292,0.100939,-0.598849,0.580738
2293,-0.037778,-0.608842,0.570287
2294,-0.143159,-0.600122,0.397367
2295,-0.11929,-0.52462,0.077622
2296,-0.101194,0.206529,-0.136517
2297,0.236716,2.239293,-0.916675
2298,-0.542151,2.255793,-1.262665
2299,-0.122697,-0.302676,-0.686439
2300,0.002562,-0.872034,-0.287566
2301,0.051894,0.235209,0.627917
2302,0.568427,0.872151,1.342804
2303,0.462262,1.408467,1.194072
2304,0.454041,-0.148308,0.553174
2305,0.160332,-0.258656,0.838139
2306,-0.101929,-0.149877,0.53493
2307,0.322232,0.628362,0.126071
2308,0.322868,0.191883,0.676306
2309,0.342483,-0.214204,0.721834
2310,0.387647,0.040487,0.422591
2311,0.11556,0.038276,0.385181
2312,0.075233,-0.12104,0.38021
2313,-0.113679,-0.394567,0.323813
2314,-0.171215,-0.416059,0.196815
2315,-0.031262,-0.288585,0.108764
2316,0.254785,-0.156817,0.196013
2317,0.250847,-0.075853,0.226899
2318,0.200996,0.078682,0.241212
2319,0.107524,0.080627,0.069181
2320,0.152217,0.290635,-0.594482
2321,0.228179,0.288647,-0.405708
2322,0.276576,0.28505,-0.197215
2323,0.326597,0.228506,0.077136
2324,0.359985,0.306396,0.194678
2325,0.204803,0.375266,0.043401
2326,-0.040007,0.324916,-0.226409
2327,0.067953,0.221063,0.067774
2328,0.138811,0.186746,0.179964
2329,0.179554,0.424038,0.412536
2330,0.147456,0.460427,0.580316
2331,-0.155764,0.739338,0.756302
2332,-0.543777,0.629715,0.663076
2333,-0.408875,0.660323,0.237836
2334,-0.119377,0.513802,0.726958
2335,0.226585,0.193672,0.511002
2336,0.197415,0.164571,0.20976
2337,0.225143,0.018615,0.130909
2338,0.195462,0.02233,0.393549
2339,0.235922,-0.408718,0.852387
2340,0.261693,-0.638975,0.830245
2341,0.2513,-0.676374,0.735752
2342,0.174868,-0.513829,0.595739
2343,0.149122,-0.41651,0.561889
2344,0.114984,-0.539465,0.637205
2345,0.069952,-0.513624,0.503789
2346,-0.078316,-0.441154,0.259616
2347,-0.142669,-0.366926,0.142964
2348,-0.202109,-0.164345,-0.024008
2349,0.179665,2.318037,-1.04144
2350,-0.077484,2.893821,-1.204031
2351,-0.506218,0.554193,-0.893224
2352,-0.019058,-0.946623,-0.148058
2353,0.167775,0.018072,0.509792
2354,0.433304,0.313938,0.705812
2355,0.545124,1.230958,1.017779
2356,0.468664,0.779635,0.482189
2357,0.554363,0.278915,0.699013
2358,0.011568,0.024621,0.135612
2359,0.236796,0.446311,-0.026345
2360,0.452668,0.587045,0.229485
2361,0.397623,-0.04616,0.528869
2362,0.304259,0.012313,0.459087
2363,0.217565,-0.043577,0.296277
2364,-0.067267,-0.219855,0.332684
2365,-0.081975,-0.473944,0.368932
2366,-0.015786,-0.530837,0.342325
2367,0.050613,-0.468561,0.436201
2368,0.091547,-0.295178,0.480458
2369,0.137539,-0.085637,0.237086
2370,-0.010398,0.029974,0.104947
2371,0.217968,0.227136,-0.460293
2372,0.341778,0.292265,-0.454152
2373,0.457432,0.296497,-0.096756
2374,0.191661,0.435064,-0.263216
2375,0.278003,0.389993,-0.171529
2376,0.511143,0.219846,0.054852
2377,0.283609,0.392208,-0.093949
2378,0.05925,0.450179,-0.086369
2379,0.123453,0.458481,0.125108
2380,0.0085,0.180559,0.257768
2381,-0.171932,0.195516,0.396376
2382,-0.424122,0.218308,0.386914
2383,-0.345814,0.359129,0.502392
2384,-0.28973,0.559396,0.508484
2385,-0.269353,0.762119,0.553002
2386,-0.221914,0.716462,0.400636
2387,-0.078181,0.776135,0.516515
2388,0.17887,0.548308,0.623575
2389,0.533865,0.056453,0.469024
2390,0.442382,-0.20313,0.476118
2391,0.156905,-0.457453,0.623192
2392,-0.01273,-0.558975,0.716397
2393,-0.001618,-0.646528,0.788602
2394,0.044195,-0.528171,0.666871
2395,0.080802,-0.482199,0.526019
2396,0.116606,-0.487114,0.569963
2397,0.035985,-0.601768,0.57139
2398,-0.026269,-0.64729,0.435442
2399,-0.066067,-0.668084,0.232248
2400,-0.051203,0.237469,-0.333638
2401,0.036523,1.055712,-0.7855
2402,0.170685,2.314581,-1.165966
2403,-0.897174,0.692015,-0.963877
2404,-0.261279,-1.037477,-0.046807
2405,-0.231717,-0.692005,0.157161
2406,0.613168,1.256326,1.473638
2407,0.542463,1.600314,1.020299
2408,0.603119,0.205609,0.826454
2409,0.231687,-0.41773,0.997222
2410,0.095686,-0.341454,0.914622
2411,0.433142,0.889192,-0.132698
2412,0.689629,0.512186,0.662678
2413,0.326468,-0.060171,0.51442
2414,0.188861,0.008472,0.358537
2415,-0.145816,-0.089114,0.330084
2416,-0.111052,-0.286148,0.382966
2417,-0.161914,-0.499303,0.323597
2418,-0.063128,-0.450266,0.4931
2419,-0.046964,-0.385782,0.540431
2420,-0.090712,-0.233734,0.443904
2421,0.06119,0.113089,0.199488
2422,0.221191,0.206084,-0.073934
2423,0.511009,0.378667,-0.674468
2424,0.644497,0.37026,-0.238429
2425,0.254232,0.268295,-0.24103
2426,0.208588,0.278059,0.064287
2427,0.365843,0.292026,0.116406
2428,0.237665,0.363572,0.125384
2429,-0.120346,0.327978,-0.111474
2430,-0.174707,0.297714,-0.150104
2431,-0.138914,0.284338,0.058343
2432,-0.090216,0.081468,0.249621
2433,-0.172191,0.038395,0.453602
2434,-0.201209,0.182195,0.404567
2435,-0.225603,0.430326,0.500036
2436,-0.185893,0.772721,0.541773
2437,-0.192245,0.810631,0.332979
2438,-0.053621,0.682596,0.284281
2439,0.097915,0.541065,0.528155
2440,0.212166,0.302884,0.569352
2441,0.283594,0.024518,0.408074
2442,0.078768,-0.181423,0.608515
2443,0.034702,-0.278368,0.836566
2444,0.027467,-0.464492,0.827435
2445,0.050172,-0.423256,0.729374
2446,0.073347,-0.410097,0.79463
2447,0.080111,-0.453764,0.766931
2448,0.058111,-0.526148,0.640672
2449,0.033023,-0.552917,0.576858
2450,-0.031206,-0.52782,0.476319
2451,-0.048314,-0.476432,0.162012
2452,-0.139986,-0.074558,-0.032588
2453,-0.082691,0.417181,-0.362119
2454,-0.391414,3.16688,-1.214755
2455,-0.695675,1.754285,-0.946056
2456,-0.171787,-1.171915,-0.348138
2457,0.015287,-0.533342,0.27449
2458,0.267027,0.295208,1.133284
2459,0.365299,0.465814,1.356365
2460,0.447889,1.297907,0.776924
2461,0.572066,0.131964,0.186595
2462,0.462266,-0.148825,0.961828
2463,-0.123108,-0.187759,0.652946
2464,0.14736,0.564632,2.10E-05
2465,0.252735,0.661295,0.14617
2466,0.466369,0.063716,0.859082
2467,0.254954,-0.050397,0.566057
2468,0.09027,-0.161944,0.375469
2469,-0.006376,-0.369199,0.431807
2470,-0.047768,-0.310655,0.381093
2471,-0.030875,-0.165303,0.430209
2472,0.050294,-0.123898,0.244467
2473,0.103416,-0.14689,0.052296
2474,0.19603,-0.098024,-0.012933
2475,0.263333,0.03357,-0.131782
2476,0.229116,0.141385,-0.081476
2477,0.109165,0.230728,-0.043463
2478,-0.047562,0.328104,-0.419433
2479,0.144183,0.336537,-0.349211
2480,0.349762,0.270761,-0.177274
2481,0.401072,0.249819,0.113333
2482,-0.030526,0.338004,-0.017592
2483,-0.125792,0.404357,-0.174836
2484,-0.074772,0.253659,-0.080391
2485,0.081628,-0.02184,0.191848
2486,0.067689,0.205499,0.281313
2487,-0.122086,0.455324,0.478065
2488,-0.190735,0.652026,0.51672
2489,-0.395718,0.633465,0.561587
2490,-0.486756,0.623498,0.513094
2491,-0.071591,0.57824,0.372377
2492,-0.020562,0.49261,0.502077
2493,0.139303,0.158123,0.543956
2494,0.264275,0.02936,0.568567
2495,0.3555,-0.095364,0.42117
2496,0.309764,-0.262845,0.477666
2497,0.317332,-0.426101,0.768572
2498,0.411237,-0.523427,1.283129
2499,0.167127,-0.454948,0.829957
2500,0.04143,-0.430376,0.467835
2501,0.080745,-0.403743,0.508679
2502,0.06465,-0.457258,0.536078
2503,-0.034174,-0.51488,0.458178
2504,-0.133996,-0.587262,0.319763
2505,-0.068845,0.035086,0.15312
2506,-0.038163,0.438005,-0.164765
2507,0.004505,2.045066,-0.948181
2508,-0.670738,0.44867,-0.776733
2509,-0.451527,-0.576908,-0.663317
2510,-0.135112,-0.94904,-0.127571
2511,0.28197,0.329556,0.8201
2512,0.417482,0.873482,0.976927
2513,0.836327,0.880392,0.608193
2514,1.123914,-0.119392,1.029513
2515,0.361132,-0.628325,1.422648
2516,-0.102842,-0.394436,1.028072
2517,-0.199429,0.723166,-0.241706
2518,0.292628,0.516226,0.769445
2519,0.37462,0.159345,0.707096
2520,0.269745,0.106609,0.366056
2521,0.123138,-0.128498,0.577396
2522,0.079313,-0.32851,0.632859
2523,0.044369,-0.341379,0.383947
2524,0.121339,-0.278855,0.191866
2525,0.252707,-0.177615,-0.006997
2526,0.217893,-0.141415,0.076043
2527,0.074137,-0.161916,0.224426
2528,-0.020781,-0.110889,0.166538
2529,0.018462,-0.000676,-0.058931
2530,0.053192,0.083869,-0.311343
2531,-0.00154,0.262203,-0.35414
2532,0.196777,0.383324,-0.23756
2533,0.337478,0.244599,0.001593
2534,0.250473,0.236917,0.069981
2535,0.060512,0.364287,-0.130403
2536,-0.021635,0.463968,-0.094451
2537,0.15899,0.26381,0.233576
2538,0.156506,0.198781,0.453577
2539,-0.218259,0.388827,0.445709
2540,-0.364496,0.526924,0.553254
2541,-0.510374,0.621736,0.542553
2542,-0.369674,0.689428,0.498933
2543,-0.035485,0.734049,0.267407
2544,0.175508,0.705195,0.271038
2545,0.288821,0.319373,0.45178
2546,0.482448,-0.074412,0.741892
2547,0.219392,-0.14014,0.458643
2548,0.090163,-0.251461,0.694235
2549,0.01207,-0.528141,0.690726
2550,0.176906,-0.439943,0.640991
2551,0.202048,-0.387584,0.706236
2552,0.128429,-0.382903,0.680803
2553,0.032452,-0.415727,0.669596
2554,-0.003961,-0.444589,0.656704
2555,-0.041455,-0.4668,0.563749
2556,-0.013666,-0.514279,0.289495
2557,-0.077234,-0.482372,0.219812
2558,-0.145205,0.015976,0.06486
2559,0.038555,2.033495,-0.716169
2560,-0.104927,2.43373,-0.773071
2561,-0.296527,0.618086,-0.815727
2562,-0.13165,-0.816634,-0.104707
2563,0.174422,0.142272,0.422618
2564,0.488947,0.677222,1.189882
2565,0.579661,1.830209,1.377581
2566,0.172513,-0.30826,1.330229
2567,-0.69246,-0.831438,1.285254
2568,0.039657,0.908434,0.040771
2569,0.25706,0.679225,0.456901
2570,0.634962,0.162107,1.048309
2571,0.298599,0.338805,0.711633
2572,0.130415,0.100593,0.45179
2573,-0.019075,-0.125963,0.345724
2574,-0.17853,-0.285647,0.201723
2575,-0.102172,-0.321749,0.165494
2576,-0.058823,-0.211827,0.284589
2577,0.045907,-0.181623,0.303322
2578,0.092188,-0.134501,0.311366
2579,0.080566,-0.062376,0.258025
2580,0.055373,0.001609,0.140923
2581,0.071817,0.002035,-0.037265
