,userAcceleration.x,userAcceleration.y,userAcceleration.z
0,0.056151,-0.971106,0.113521
1,0.201004,-0.725256,-0.156072
2,0.931827,-0.497537,-0.978529
3,1.14197,0.712287,-0.774751
4,-0.496004,1.857834,0.375838
5,0.04631,2.144056,-0.435093
6,-0.735317,0.245106,-0.301176
7,-0.565242,0.499768,-0.325411
8,-0.374671,0.004412,0.197406
9,-0.711512,0.503117,0.464295
10,-0.92867,0.767219,0.602863
11,-0.470293,0.995294,0.56195
12,0.049299,0.662565,-0.03726
13,0.177014,-0.104615,0.063661
14,0.263739,-0.375791,0.043759
15,0.402376,-0.870073,-0.016159
16,0.463333,-1.038785,-0.156922
17,0.535132,-0.908853,-0.029022
18,0.353348,-0.712965,0.360821
19,0.198226,-0.740812,0.38438
20,0.317783,-0.825811,-0.847811
21,0.625855,-0.677786,-0.981321
22,0.317084,-0.27928,-0.338803
23,-0.091805,1.012584,0.090283
24,-0.204435,1.835402,0.191392
25,-1.207599,3.008821,-0.349234
26,-0.733628,1.699244,-0.270684
27,-0.499174,0.382499,-0.199854
28,-0.60904,-0.057982,0.208901
29,-0.75508,-0.0517,0.322921
30,-0.396332,-0.4837,0.28097
31,0.118255,-0.709677,0.318169
32,0.63553,-0.590735,0.37108
33,0.902543,-0.621281,0.198632
34,0.723107,-1.104413,0.04562
35,0.337091,-1.352398,0.117243
36,0.128193,-1.280047,0.174593
37,0.329302,-0.90116,-0.108406
38,0.942826,-0.444753,-0.467142
39,1.06603,0.026033,-0.548988
40,-0.084946,1.127365,-0.263219
41,-0.719506,0.619259,-0.315139
42,-0.615784,0.246758,-0.188279
43,-0.466647,0.022705,-0.127789
44,-0.410598,0.252604,-0.029576
45,-0.547759,0.62501,0.146886
46,-0.833348,1.069289,0.839753
47,-0.243925,0.923442,0.572356
48,0.090405,0.715952,0.322726
49,0.413314,0.011921,-0.115044
50,0.43708,-0.485874,-0.088
51,0.494738,-1.02955,-0.094392
52,0.467923,-0.954174,-0.081759
53,0.397575,-0.849597,0.207898
54,0.232772,-0.837044,0.339987
55,0.059982,-0.885299,0.286055
56,0.138976,-1.016481,0.037812
57,0.28189,-1.158937,-0.777088
58,0.677939,-0.67889,-0.762186
59,0.528824,-0.337453,-0.723438
60,-0.173319,1.162916,-0.091358
61,-0.970781,3.369484,0.495418
62,-1.259459,3.579294,-0.171746
63,-0.737334,1.516644,-0.036772
64,-0.113533,-0.451946,0.074781
65,-0.560122,-0.37533,0.453785
66,-0.484746,-0.200375,0.528719
67,-0.086043,-0.640462,0.187198
68,0.351107,-0.959304,-0.070419
69,0.841832,-0.938922,-0.211161
70,0.931333,-0.913848,-0.125077
71,0.351075,-1.011218,0.060969
72,-0.077827,-1.07935,0.155363
73,0.02098,-0.988401,0.252004
74,0.547692,-0.772854,-0.395205
75,1.371424,0.002904,-0.79917
76,0.37147,1.8066,0.113706
77,0.279045,2.344505,0.210729
78,-1.106784,0.139632,-0.288475
79,-0.611383,0.278504,-0.432361
80,-0.478514,-0.163875,-0.1472
81,-0.567488,0.033718,0.150512
82,-0.624184,0.348319,0.448121
83,-0.66923,0.747063,0.797237
84,0.002605,0.928371,0.428841
85,0.353038,0.721924,0.217949
86,0.269192,-0.354057,-0.040001
87,0.314212,-0.560337,-0.073562
88,0.285448,-0.639469,-0.041332
89,0.45825,-1.040742,-0.076813
90,0.45218,-1.068253,0.043008
91,0.349333,-1.018166,0.157329
92,0.058366,-0.762211,0.20787
93,0.210534,-0.951103,-0.302475
94,0.449522,-1.002568,-0.954225
95,0.512063,-0.593768,-0.88225
96,0.464638,0.073267,-0.655409
97,-0.845122,2.559108,0.774364
98,-1.412611,3.301917,-0.254666
99,-0.982426,2.121369,0.100817
100,0.200692,-0.317484,-0.039957
101,-0.195767,-0.669031,0.313895
102,-0.525136,-0.449904,0.456767
103,-0.5,-0.360066,0.239406
104,0.12416,-0.706533,0.041693
105,0.467674,-0.848399,-0.0858
106,0.995972,-0.731498,-0.227218
107,0.987083,-0.662282,-0.1594
108,0.546335,-0.912197,0.008773
109,0.175884,-0.901228,0.352137
110,0.166228,-0.939468,0.290468
111,0.32585,-0.929836,-0.094326
112,1.226925,-0.284206,-0.800184
113,0.984736,0.604497,-0.64944
114,-0.644722,1.579847,0.489651
115,-1.1071,0.582978,-0.086571
116,-0.64514,0.493921,-0.061009
117,-0.533121,0.520763,-0.517493
118,-0.48101,-0.032352,0.525041
119,-0.483833,0.208438,0.787436
120,-0.516924,0.536171,0.823586
121,0.266823,0.725422,0.344518
122,0.117163,0.249877,0.020053
123,0.13994,-0.022072,0.007944
124,0.26438,-0.246273,-0.123301
125,0.311036,-0.502211,-0.228881
126,0.465954,-0.713016,-0.181238
127,0.47543,-0.735751,0.113513
128,0.281709,-0.735062,0.470973
129,0.152144,-0.903305,0.405416
130,0.244322,-0.963767,-0.603849
131,0.393403,-0.96394,-0.982919
132,0.38596,-0.8189,-1.106485
133,0.160702,0.589135,-0.192257
134,-0.604108,2.118642,0.670954
135,-0.686311,3.246579,0.366049
136,-0.9317,2.413749,-0.020988
137,0.135715,-0.366318,-0.017735
138,0.051926,-0.651462,0.194186
139,-0.243006,-0.571046,0.308795
140,-0.60441,-0.450404,0.56632
141,0.225786,-0.567777,0.296514
142,0.477055,-0.650221,0.145687
143,0.852804,-0.898516,-0.048182
144,0.791158,-0.908627,0.064387
145,0.549987,-0.980557,0.144227
146,0.014088,-1.02143,0.204873
147,0.07944,-0.944274,0.12294
148,0.154683,-0.910266,-0.000697
149,0.879329,-0.691007,-0.874086
150,1.246444,0.245685,-0.82125
151,-0.881237,1.545676,0.764043
152,-0.184202,1.627569,-0.139231
153,-0.829632,0.039765,-0.19818
154,-0.108166,0.765557,-0.233639
155,-0.250817,0.639288,-0.074442
156,-0.655715,0.845669,0.767236
157,-0.591806,1.011941,0.743651
158,-0.054831,0.604945,0.337798
159,0.134567,0.394375,0.029158
160,0.394989,-0.216526,0.083992
161,0.471994,-0.750425,-0.023317
162,0.36057,-0.706276,-0.031945
163,0.419674,-0.802565,0.014426
164,0.415709,-0.95593,0.083931
165,0.343259,-0.65059,-0.056345
166,0.345061,-0.565608,-0.213825
167,0.39536,-0.682297,-0.540277
168,0.061972,-0.842673,-0.197949
169,-0.223973,-0.318107,-0.581832
170,0.220298,1.367151,-0.152606
171,-0.930761,2.245911,0.050677
172,-1.125645,1.715197,-0.191303
173,-0.607167,1.28958,-0.1314
174,-0.291924,0.564487,0.006502
175,-0.417347,0.13972,0.31369
176,-0.426601,-0.057568,0.323653
177,-0.161619,-0.239084,0.294046
178,0.030448,-0.416161,0.2492
179,0.515001,-0.892291,0.335772
180,0.62278,-1.058507,0.283375
181,0.600058,-1.194885,0.209127
182,0.146113,-1.17567,0.135092
183,0.072533,-1.085536,0.14205
184,0.085753,-0.955601,0.103665
185,0.886896,-0.457359,-0.607484
186,1.032455,-0.176618,-0.523188
187,0.780972,0.365048,-0.18512
188,-0.388962,1.573575,-0.066516
189,-0.894952,0.497005,-0.796389
190,-1.065029,0.14934,-0.509588
191,-0.156638,0.305321,-0.051454
192,-0.165333,0.378116,0.125465
193,-0.243287,0.652943,0.564034
194,-0.379973,0.826876,0.805094
195,-0.053156,0.827118,0.520577
196,0.164326,0.389272,0.074046
197,0.160262,-0.161323,-0.096695
198,0.126495,-0.550322,-0.027903
199,0.219813,-0.923072,-0.072548
200,0.393175,-0.971501,-0.038072
201,0.447705,-1.012572,0.058259
202,0.227899,-0.827746,0.470709
203,0.261331,-0.735569,0.406703
204,0.487322,-0.716717,-0.330969
205,0.459854,-0.777454,-0.725415
206,0.315352,-0.565861,-0.601618
207,-0.044653,0.208468,-0.455052
208,-0.600817,2.317665,0.426454
209,-1.347473,2.700675,-0.099731
210,-0.591511,1.49786,-0.045113
211,-0.06341,0.257598,-0.200811
212,-0.343127,0.066973,0.151906
213,-0.538166,0.049338,0.390853
214,-0.425373,-0.241153,0.321452
215,-0.125166,-0.558014,0.196405
216,0.326483,-0.755132,0.099127
217,0.582915,-0.872158,-0.077657
218,0.637431,-1.094239,-0.081104
219,0.343392,-1.226241,0.128339
220,0.154076,-1.300341,0.218908
221,0.175308,-1.22869,0.176718
222,0.5693,-1.046711,-0.362747
223,0.967161,0.053701,-0.566105
224,-0.05896,1.393639,0.390633
225,-0.279433,1.442306,-0.429631
226,-1.220308,0.671489,-0.238347
227,-0.726135,0.579179,-0.159597
228,-0.336413,0.315396,-0.17692
229,-0.193155,0.344482,0.277584
230,-0.321479,0.713836,0.604497
231,-0.341947,0.667972,0.747778
232,-0.192666,0.748375,0.766491
233,-0.03055,0.066572,0.057665
234,-0.021776,0.071323,0.081892
235,0.208233,-0.709371,-0.245248
236,0.349711,-0.927428,-0.289064
237,0.413689,-0.92068,-0.265096
238,0.529587,-0.864935,-0.034944
239,0.219523,-0.84808,0.317115
240,0.272025,-0.888065,0.156677
241,0.470177,-0.852609,-0.428384
242,0.185541,-0.448458,-0.374207
243,-0.05379,-0.181821,-0.266053
244,-0.202217,0.220966,-0.268909
245,-0.463562,2.274661,0.294069
246,-0.705533,2.72453,0.193744
247,-0.576404,1.528516,0.284293
248,-0.242663,0.124311,0.103195
249,-0.481378,0.084998,0.085631
250,-0.576185,0.095166,0.106954
251,-0.485717,-0.169042,0.077148
252,-0.274812,-0.483863,0.282415
253,0.246154,-0.906347,0.268898
254,0.339731,-0.997437,0.122065
255,0.673785,-1.191633,-0.093829
256,0.058906,-1.107765,0.129453
257,0.105637,-1.06672,0.038833
258,0.312907,-0.857585,-0.407436
259,0.428007,0.464518,-0.308283
260,0.615659,1.078467,-0.151077
261,-0.015961,1.063156,-0.310162
262,-0.936731,0.966839,0.045736
263,-0.604381,0.125812,0.24527
264,-0.06372,0.345467,-0.081223
265,0.190714,0.461423,-0.006284
266,0.008987,0.83749,0.450453
267,-0.308724,0.82072,0.614725
268,-0.314103,0.882244,0.43467
269,-0.171527,0.536651,0.107336
270,-0.002483,-0.182621,-0.082549
271,0.149949,-0.697738,-0.1639
272,0.219654,-0.836233,-0.09277
273,0.414979,-0.954254,-0.027503
274,0.359814,-1.235348,0.092316
275,0.398941,-1.105492,0.22342
276,0.368942,-1.08137,0.292078
277,0.297642,-0.897592,-0.48977
278,0.328774,-0.844855,-0.648683
279,0.161864,-0.542618,-0.35713
280,-0.063955,-0.229745,-0.10941
281,-0.019517,2.466828,0.483114
282,0.016371,2.474619,0.450886
283,-0.897075,1.967238,0.178276
284,-0.327101,0.48291,-0.027711
285,-0.323217,-0.285036,-0.252315
286,-0.655482,-0.295259,-0.062755
287,-0.63771,-0.049495,0.170452
288,-0.453521,-0.222136,0.167941
289,-0.236805,-0.407494,0.200117
290,0.667224,-0.632808,0.166731
291,0.783375,-0.671752,0.087221
292,0.845622,-0.761032,0.016947
293,0.165651,-1.01628,0.036092
294,0.0714,-1.055095,0.043808
295,0.042496,-1.132576,0.033167
296,0.506006,-0.839063,-0.561496
297,0.877047,-0.649915,-0.790086
298,-0.394485,2.539493,0.454954
299,-0.049705,1.822779,0.203725
300,-0.770159,0.183967,-0.648399
301,-0.712249,0.361622,-0.181789
302,-0.551479,-0.023638,-0.231291
303,-0.267006,-0.351534,0.172064
304,-0.482411,0.67601,0.817465
305,0.048898,0.621177,0.76376
306,0.512914,0.659358,0.437445
307,0.3275,0.418816,0.275668
308,-0.067349,0.16547,0.234037
309,-0.111879,0.096656,-0.174749
310,-0.000587,-0.511806,-0.273984
311,0.137663,-0.939115,-0.348414
312,0.220439,-0.978861,-0.337295
313,0.434518,-0.861703,0.211292
314,0.344944,-1.047026,0.513476
315,0.298915,-0.905598,0.09862
316,0.33501,-0.744395,-0.638175
317,0.348821,-0.73156,-0.614623
318,0.296346,-0.348803,-0.533905
319,0.530515,0.904064,-0.140473
320,0.26217,1.604838,0.197155
321,-0.670296,2.909673,0.509411
322,-0.831867,1.352511,0.051394
323,-0.213498,0.032326,-0.233803
324,-0.28924,-0.332018,-0.288623
325,-0.840958,-0.064646,0.440819
326,-0.660533,-0.077239,0.439986
327,-0.069645,-0.191707,0.579884
328,0.37664,-0.400046,0.488134
329,0.572634,-0.658219,0.294305
330,0.765096,-0.840107,-0.057406
331,0.621678,-0.956399,-0.142969
332,0.259004,-1.106601,0.014549
333,-0.072357,-1.241407,0.139308
334,0.246052,-0.901074,-0.140926
335,0.860336,-0.583335,-0.61665
336,1.121928,0.643819,-0.668852
337,-0.406701,2.096047,0.423161
338,-1.216568,0.828322,-0.099343
339,-0.975308,0.448985,0.008478
340,-0.526441,0.0397,-0.158449
341,-0.247865,-0.434353,-0.040533
342,-0.253761,-0.20275,0.17227
343,-0.402342,0.671991,0.670546
344,-0.006943,0.553639,0.724691
345,0.300946,0.432353,0.627035
346,0.256076,0.242734,0.273642
347,0.064571,0.062393,0.047377
348,0.075608,-0.022505,-0.10749
349,0.556336,-1.15903,-0.894235
350,0.555149,-0.640129,-0.027384
351,0.211802,-0.693265,0.418458
352,0.206606,-0.935935,0.479172
353,0.434749,-0.394287,-0.774612
354,0.503812,-0.428915,-0.681347
355,0.440227,-0.559628,-0.427891
356,0.365894,0.228048,-0.440598
357,0.221672,1.777315,0.292688
358,-1.390369,2.4251,0.223202
359,-0.533931,1.02914,0.084178
360,-0.320068,0.443236,-0.023024
361,-0.595213,-0.377963,0.114466
362,-0.754079,-0.288342,0.47674
363,-0.649081,-0.283251,0.422861
364,-0.060555,-0.500762,0.428314
365,0.292981,-0.683316,0.307568
366,0.497673,-0.699241,0.219454
367,0.895775,-1.045901,-0.014364
368,0.596545,-1.18137,0.034426
369,0.029978,-0.996313,0.224926
370,-0.055299,-1.031096,0.047342
371,0.562126,-0.762803,-0.645107
372,1.192751,0.194615,-0.668452
373,-0.056901,2.480032,0.194914
374,0.14224,1.986815,-0.221064
375,-1.328257,0.325543,-0.229517
376,-0.413361,0.201105,-0.148883
377,-0.168251,-0.360688,0.00844
378,-0.223826,0.17607,0.318106
379,-0.454427,0.762745,0.668672
380,-0.34932,0.743171,0.729857
381,0.160861,0.617979,0.423209
382,0.374619,0.298939,0.078179
383,0.169848,-0.191555,0.115822
384,0.15301,-0.457498,0.139626
385,0.172172,-0.776207,0.016494
386,0.34851,-1.016834,-0.109353
387,0.431005,-1.046858,-0.105202
388,0.23714,-0.86005,0.284351
389,0.138966,-0.768975,0.322863
390,0.26807,-0.811706,-0.666479
391,0.329289,-0.782331,-1.128288
392,0.41209,-0.075914,-0.852342
393,-0.169127,1.320195,0.175692
394,-0.369076,2.005535,0.766771
395,-0.695259,1.857161,-0.041762
396,-0.334735,1.046176,-0.142615
397,-0.149856,0.475994,-0.273906
398,-0.601843,-0.270722,0.535919
399,-0.772975,-0.024534,0.538318
400,-0.883055,0.064396,0.477925
401,0.075601,-0.44625,0.001904
402,0.325859,-0.549385,-0.07063
403,0.599426,-0.690942,-0.067276
404,0.67716,-0.924537,-0.028713
405,0.49713,-1.27273,0.172977
406,0.085573,-1.309265,0.435714
407,0.016019,-1.238853,0.360911
408,0.325713,-0.869882,-0.365909
409,1.122777,0.044264,-0.782729
410,0.675231,1.054749,-0.496576
411,-0.539479,2.185496,0.14359
412,-1.120128,0.458467,-0.291657
413,-0.938619,0.527893,-0.062946
414,-0.234968,-0.144993,0.004013
415,-0.263422,0.054679,0.450587
416,-0.335189,0.3066,0.654434
417,-0.16105,0.575586,0.376079
418,0.135559,0.40456,0.013156
419,0.09162,0.048047,-0.026167
420,0.080738,-0.166173,0.037249
421,0.142101,-0.488948,-0.152629
422,0.27584,-0.752198,-0.175006
423,0.480347,-0.944891,-0.194566
424,0.468529,-0.957474,-0.002538
425,0.234143,-0.95884,0.276924
426,0.198345,-0.91567,0.279803
427,0.259701,-0.943957,-0.667252
428,0.250863,-0.887099,-0.753583
429,0.1222,-0.679446,-0.812109
430,-0.024544,1.388325,0.379714
431,-0.193407,2.881372,0.721601
432,-1.22058,3.015848,-0.220497
433,-0.601336,1.021735,-0.062911
434,-0.384368,-0.233218,-0.205273
435,-0.529843,-0.64355,0.121562
436,-0.89544,-0.491986,0.336472
437,-0.777343,-0.574628,0.194421
438,-0.123183,-0.556777,0.15184
439,0.421615,-0.517083,-0.009147
440,0.833123,-0.444612,0.057671
441,0.882357,-0.569312,0.143835
442,0.740223,-0.920101,0.241431
443,0.409873,-1.044606,0.25728
444,0.277806,-1.049798,0.106308
445,0.373847,-0.92666,-0.441157
446,0.879982,0.148796,-0.722303
447,0.525587,1.017716,-0.492493
448,-0.546071,1.715227,-0.332051
449,-0.75531,0.501916,-0.132897
450,-0.524783,0.551843,-0.219087
451,-0.025677,0.223712,-0.030651
452,-0.165808,0.394488,0.344567
453,-0.341472,0.578692,0.531281
454,-0.335306,0.69359,0.607391
455,0.138765,0.421733,0.200333
456,0.136048,0.060796,0.007174
457,0.090302,-0.080791,-0.044785
458,0.169358,-0.609107,-0.196617
459,0.256087,-0.740696,-0.189189
460,0.316944,-0.781411,-0.211462
461,0.537741,-0.963693,0.059584
462,0.462189,-0.956441,0.206152
463,0.355591,-1.001587,0.26323
464,0.232355,-0.983229,-0.161285
465,0.381366,-1.09123,-0.613743
466,0.359861,-1.034531,-0.708291
467,-0.027402,1.121805,-0.325301
468,-0.48659,2.661783,0.821373
469,-0.923393,2.969446,0.024466
470,-0.498175,1.16221,-0.072469
471,-0.224917,0.14912,-0.197709
472,-0.546573,-0.247608,0.005604
473,-0.919618,-0.053761,0.325963
474,-0.984483,-0.072313,0.267827
475,-0.508008,-0.372015,0.346833
476,0.075989,-0.259895,0.084613
477,0.284901,-0.282661,0.013224
478,0.663493,-0.49191,0.021425
479,0.700489,-0.846062,0.029996
480,0.625423,-1.062329,0.110352
481,0.391018,-1.128186,0.207854
482,0.297468,-1.217951,-0.029006
483,0.546205,-0.799136,-0.53733
484,0.664709,-0.035156,-0.514641
485,-0.177043,1.02167,0.194345
486,-0.529136,1.578602,-0.264841
487,-1.359936,0.935522,-0.52008
488,-0.809301,0.487275,-0.078161
489,-0.152028,0.068006,-0.025518
490,0.000234,-0.129965,0.013186
491,-0.046566,0.318063,0.531027
492,-0.037788,0.320189,0.57099
493,0.097152,0.389252,0.437126
494,0.08369,0.349366,0.231417
495,-0.055857,0.229564,0.171494
496,-0.396927,0.166608,-0.122981
497,-0.222733,-0.112608,-0.172408
498,0.113075,-0.72037,-0.221287
499,0.313166,-0.946412,-0.167376
500,0.528306,-1.006555,-0.065963
501,0.583769,-0.936974,0.211614
502,0.436802,-0.922213,0.192225
503,0.333289,-0.715209,-0.59041
504,0.285513,-0.657262,-0.587545
505,0.138127,-0.583398,-0.611766
506,0.060632,1.664685,0.421971
507,-0.093875,2.326328,0.437608
508,-0.467924,2.955374,0.038473
509,-0.246197,0.444941,-0.038537
510,-0.239872,0.447277,-0.042453
511,-0.48736,-0.669141,0.05782
512,-0.65698,-0.559653,0.14458
513,-0.710482,-0.215717,0.149838
514,-0.357393,-0.180948,0.247558
515,0.078899,-0.248568,0.110246
516,0.2822,-0.283643,0.00853
517,0.583339,-0.610374,-0.069823
518,0.672665,-0.872042,-0.033611
519,0.638084,-1.000234,0.00289
520,0.349182,-1.134091,0.147514
521,0.466062,-0.947071,-0.306714
522,0.670681,-0.536788,-0.753759
523,0.462743,0.554731,-0.16012
524,-0.508868,1.505203,0.482206
525,-0.641198,2.216254,-0.723533
526,-1.355735,0.758365,-0.380701
527,-0.612631,0.116841,-0.039762
528,0.117106,-0.442652,-0.12429
529,0.225379,-0.168436,0.156293
530,-0.001543,0.202748,0.432884
531,0.175163,0.218122,0.555344
532,0.324453,0.318227,0.366631
533,0.144333,0.367264,0.284244
534,-0.255544,0.312952,0.124678
535,-0.40338,0.339139,-0.162245
536,-0.347404,0.038531,-0.385496
537,-0.275059,-0.110687,-0.484047
538,0.048991,-0.736483,-0.329179
539,0.256438,-0.883402,-0.150412
540,0.320155,-0.985273,-0.012846
541,0.273147,-1.053448,-0.082373
542,0.323424,-0.866171,-0.349379
543,0.280019,-0.667492,-0.475252
544,0.042563,-0.335759,-0.434782
545,-0.041433,0.159843,-0.548464
546,0.04394,1.206722,-0.113048
547,-0.298396,1.97386,0.050095
548,-0.54037,1.3919,0.109352
549,-0.115099,0.869899,0.087029
550,0.108858,0.33257,-0.022233
551,-0.240314,-0.537088,-0.000333
552,-0.381188,-0.46615,0.048037
553,-0.613456,-0.277023,-0.029808
554,-0.676955,-0.06208,-0.089151
555,-0.579342,-0.103189,-0.172472
556,-0.222043,-0.282133,-0.440129
557,0.16226,-0.425884,-0.369969
558,0.150512,-0.428663,-0.369497
559,0.387449,-0.687407,0.035026
560,0.362899,-0.699859,0.091358
561,0.245889,-0.678732,0.1157
562,0.242917,-0.728029,0.051176
563,0.602668,-0.819863,-1.111222
564,0.680656,-0.619488,-1.157443
565,-0.882295,1.666181,-0.181086
566,-0.961274,1.902715,-0.024687
567,-0.745446,1.177943,-0.291242
568,-0.537288,0.687084,-0.359193
569,-0.11682,0.212335,-0.044394
570,-0.265709,0.25231,0.074241
571,-0.55884,0.199283,0.257908
572,-0.531388,0.146612,0.168145
573,-0.519952,0.017177,-0.061488
574,-0.461369,-0.096397,-0.162942
575,-0.466213,-0.150416,-0.207878
576,-0.35108,-0.059363,-0.246104
577,-0.214493,-0.154399,-0.29852
578,-0.011363,-0.45499,-0.327506
579,0.202273,-0.749114,-0.241748
580,0.328907,-1.007072,-0.020982
581,0.228394,-1.131364,0.034415
582,0.149447,-1.189396,-0.067696
583,0.268044,-0.89971,-0.424186
584,-0.114243,-0.011899,-0.395091
585,-0.299807,0.537321,-0.368147
586,-0.491157,1.149352,-0.106923
587,-0.776679,1.884331,-0.432158
588,-0.890233,1.682198,-0.554223
589,-0.775305,1.385476,-0.390072
590,-0.220984,0.081494,0.294312
591,-0.276333,-0.045415,0.323852
592,-0.313391,-0.119026,0.243046
593,-0.190484,-0.282323,0.108681
594,-0.201728,-0.263217,0.101991
595,-0.20035,-0.243298,0.112431
596,-0.180832,-0.216392,-0.009162
597,-0.157684,-0.209808,-0.017443
598,-0.143362,-0.357269,0.00086
599,-0.105395,-0.919,0.162971
600,-0.020317,-1.022053,0.010777
601,0.143923,-0.874984,-0.272014
602,0.234002,-0.510335,-0.546817
603,0.466038,0.11114,-0.534249
604,0.090103,0.337121,-0.23465
605,-0.22362,0.151914,-0.114854
606,-0.112538,0.402118,-0.105862
607,-0.047143,0.772882,-0.116597
608,-0.251133,0.822123,0.077884
609,-0.705867,0.941119,0.479525
610,-0.824452,0.898949,0.484025
611,-0.547119,0.370619,0.103026
612,-0.348357,-0.03348,-0.066503
613,-0.308795,-0.286372,-0.10198
614,-0.226983,-0.280041,-0.088939
615,-0.038225,-0.376606,0.043141
616,0.149059,-0.712402,0.209418
617,0.251403,-0.974245,0.31526
618,0.278012,-1.07217,0.320923
619,0.220608,-0.997518,0.102016
620,0.261274,-0.946257,-0.335338
621,0.249287,-0.793427,-0.44305
622,-0.063276,0.000585,-0.523734
623,-0.559274,1.060571,-0.143361
624,-1.350512,2.633581,0.297073
625,-0.91168,2.280424,-0.613421
626,0.0275,0.893811,-0.063767
627,0.080324,-0.012373,0.440111
628,-0.180007,-0.504738,0.636516
629,-0.261188,-0.642155,0.611342
630,-0.237327,-0.971506,0.369541
631,0.22078,-0.713347,0.013178
632,0.345452,-0.506276,-0.053442
633,0.057793,-0.613889,0.05059
634,0.098078,-0.932687,0.101365
635,0.327581,-0.677263,0.058658
636,0.488709,-0.498805,0.03384
637,0.505059,0.306834,-0.297876
638,0.480509,0.452884,-0.006144
639,-0.155086,0.341261,-0.189268
640,-0.715799,0.176667,-0.308068
641,-0.421785,0.216772,0.255081
642,-0.296463,0.271845,0.140452
643,-0.462986,0.692786,0.19157
644,-0.489983,1.156533,0.662447
645,-0.593814,0.982492,0.506422
646,-0.526082,0.611629,0.294519
647,-0.120901,-0.102554,-0.145905
648,-0.084784,-0.393061,-0.073872
649,-0.005268,-0.83352,-0.0898
650,0.212253,-0.903288,-0.044144
651,0.436666,-0.849315,0.166439
652,0.502182,-0.887304,0.38938
653,0.359441,-0.789196,0.313273
654,0.440693,-0.736177,-0.193501
655,0.542785,-0.743857,-0.45387
656,0.223039,-0.739152,-0.265542
657,0.005238,-0.217589,-0.408677
658,-0.294978,2.272456,0.38552
659,-1.761829,3.344995,-0.041244
660,-0.910764,1.835953,-0.126238
661,-0.229539,0.262157,-0.112747
662,-0.356843,-0.4045,0.212047
663,-0.563031,-0.338294,0.41896
664,-0.339386,-0.515395,0.459075
665,0.067412,-0.816334,0.525054
666,0.438299,-0.730636,0.384953
667,0.713191,-0.615692,0.02399
668,0.583616,-0.76493,0.091841
669,0.167301,-0.92828,0.160555
670,0.105089,-1.03003,0.163458
671,0.572705,-0.802674,-0.35413
672,0.892821,-0.269207,-0.550199
673,0.597542,1.265902,-0.278873
674,-0.055249,1.040899,-0.04727
675,-0.352002,1.085541,-0.084624
676,-0.766322,0.255214,0.172621
677,-0.282445,0.114477,0.099821
678,-0.185926,0.497646,0.10913
679,-0.575535,1.060376,0.55338
680,-0.791112,0.826631,0.516826
681,-0.460805,0.499639,0.434744
682,-0.123841,0.321599,0.225439
683,0.107081,-0.595359,-0.099435
684,0.113569,-0.584705,-0.069928
685,0.286334,-0.931901,-0.10624
686,0.666239,-0.921183,0.300323
687,0.658862,-0.929194,0.284046
688,0.197944,-0.813423,0.448544
689,0.232992,-0.845161,0.269435
690,0.386683,-1.005252,-0.802903
691,0.41958,-0.947591,-0.91222
692,0.082942,-0.269669,-0.726305
693,-0.084838,0.497796,-0.454202
694,-0.122852,1.411908,0.089213
695,-1.454626,3.530504,-0.39409
696,-0.683051,2.103753,-0.193237
697,-0.009788,0.141575,-0.244147
698,-0.246726,-0.570751,0.178901
699,-0.759474,-0.111757,0.499355
700,-0.576322,-0.354909,0.498104
701,-0.133696,-0.652335,0.377278
702,0.495629,-0.732497,0.068567
703,0.742104,-0.785483,0.101303
704,0.208435,-1.013849,0.369599
705,0.110181,-1.147046,0.402484
706,0.333594,-1.058964,0.198379
707,0.64895,-0.882505,-0.20627
708,1.161222,-0.439675,-0.647481
709,0.374283,1.479243,0.231022
710,0.044927,0.784081,-0.198929
711,0.245461,0.979611,-0.268706
712,-0.617246,0.372947,0.092751
713,-0.443162,0.339078,0.083116
714,-0.560199,0.679549,0.238554
715,-0.683348,1.016829,0.677692
716,-0.723077,0.849436,0.711861
717,-0.199503,0.454595,0.280331
718,0.19564,-0.106941,-0.146914
719,0.296783,-0.744474,-0.166402
720,0.255806,-0.939691,-0.204859
721,0.224238,-0.844191,-0.205231
722,0.512206,-0.614866,0.081258
723,0.551511,-0.680198,0.48005
724,0.273885,-0.741809,0.61989
725,0.495875,-0.726978,-0.243084
726,0.575206,-0.741522,-0.761175
727,0.490605,-0.615602,-0.647566
728,0.044526,0.102328,-0.445866
729,-0.331159,0.811231,-0.116123
730,-0.959661,2.89184,0.221884
731,-1.175023,2.49754,-0.187248
732,-0.665059,1.637984,-0.034726
733,-0.261054,-0.044979,0.082557
734,-0.631315,-0.153923,0.4445
735,-0.529108,-0.332577,0.484348
736,-0.168887,-0.74115,0.445423
737,0.728237,-0.832096,0.296165
738,0.983255,-0.716535,0.262196
739,1.057129,-0.885361,0.220581
740,0.058693,-1.034582,0.284543
741,-0.075072,-0.88829,0.173234
742,-0.139432,-0.792336,0.121953
743,0.961803,-0.250014,-0.683552
744,0.948859,0.35946,-0.724175
745,0.82013,1.174221,-0.428144
746,-0.292048,0.931138,-0.203865
747,-0.689236,0.123202,0.109005
748,-0.358738,0.071559,-0.009265
749,-0.268815,0.348201,-0.080065
750,-0.358104,0.691734,0.154929
751,-0.719457,1.073573,0.905911
752,-0.346621,0.802019,0.585113
753,-0.089209,0.641511,0.291122
754,0.081954,-0.078321,-0.183127
755,0.190637,-0.593269,-0.313154
756,0.30152,-1.182247,-0.322543
757,0.407828,-1.140407,-0.168602
758,0.649657,-0.847522,0.282111
759,0.3214,-0.806824,0.565757
760,0.216645,-0.785084,0.279527
761,0.450071,-0.861819,-0.760373
762,0.618627,-0.80566,-1.032168
763,0.387931,-0.445494,-0.451712
764,-0.059645,0.727708,-0.228895
765,-0.420483,2.171175,0.431915
766,-0.84095,2.841647,0.374757
767,-0.823619,1.733334,0.102765
768,-0.336891,0.324395,-0.10099
769,-0.260992,-0.038459,-0.097134
770,-0.597132,-0.111687,0.318311
771,-0.412929,-0.434421,0.162114
772,-0.183554,-0.701613,0.098909
773,0.766144,-0.921869,0.256732
774,0.842798,-0.921331,0.295631
775,0.806603,-0.928782,0.304307
776,0.188961,-1.010109,0.290651
777,0.154818,-1.09298,0.254744
778,0.260562,-1.079771,0.083984
779,0.981356,0.039754,-0.767573
780,0.579912,0.764419,-0.385443
781,0.210047,1.560485,-0.051633
782,-1.17149,0.510608,0.056602
783,-1.005953,0.336935,0.273322
784,-0.758209,0.41351,0.080703
785,-0.242441,0.512139,0.229289
786,-0.373811,0.709815,0.492489
787,-0.525957,0.786837,0.886842
788,-0.328819,0.637454,0.581895
789,0.024361,0.228119,0.154814
790,0.066951,-0.221331,-0.091576
791,-0.006065,-0.579823,-0.167988
792,0.1206,-0.717149,-0.293593
793,0.532646,-0.734264,-0.031541
794,0.656097,-0.784967,0.417454
795,0.54373,-0.800424,0.599277
796,0.447371,-0.694888,-0.054998
797,0.561411,-0.650281,-0.886061
798,0.406775,-0.715024,-0.687269
799,0.10298,-0.348351,-0.620675
800,-0.287738,1.193163,-0.005324
801,-0.589468,1.822128,0.513143
802,-1.517863,2.921254,-0.186299
803,-0.26952,1.108408,0.057645
804,0.052363,-0.039276,-0.049869
805,-0.32411,-0.38822,0.404726
806,-0.418179,-0.182963,0.387862
807,-0.206418,-0.398989,0.408983
808,0.259798,-0.676618,0.216194
809,0.665124,-0.707443,0.119665
810,0.815843,-0.817156,0.137556
811,0.51512,-1.003172,0.369093
812,0.042228,-1.121338,0.48835
813,0.19232,-0.968056,-0.091433
814,0.640625,-0.614423,-0.526038
815,0.711241,0.360399,-0.652398
816,-0.216391,1.163491,0.200345
817,0.008707,1.213792,0.045532
818,-1.166442,0.392465,0.009314
819,-0.324424,0.279904,0.083206
820,-0.152597,0.134197,-0.006113
821,-0.194392,0.503706,0.191991
822,-0.284068,0.637614,0.461803
823,-0.558213,0.926166,0.700796
824,0.058712,0.389954,0.114669
825,0.163284,0.112359,0.02774
826,0.082898,-0.135058,0.019291
827,0.225969,-1.12655,-0.19973
828,0.309607,-1.172665,-0.161942
829,0.432013,-1.15727,-0.081528
830,0.463955,-0.418619,0.488956
831,0.40033,-0.543752,0.544241
832,0.364102,-0.653048,0.518936
833,0.538405,-0.731012,-0.928135
834,0.516539,-0.637044,-0.858144
835,0.388519,-0.545697,-0.705614
836,-0.341365,0.799822,-0.042324
837,-0.590217,1.588462,0.65743
838,-0.908983,2.231012,0.395577
839,-0.265047,1.233271,-0.355303
840,-0.108227,0.640178,-0.218218
841,-0.214075,0.100162,-0.045314
842,-0.420371,-0.154578,0.549455
843,-0.427824,-0.217492,0.581985
844,-0.051551,-0.521296,0.472146
845,0.528908,-0.720555,0.305733
846,0.938684,-0.703948,0.084687
847,0.765092,-0.997711,-0.004432
848,0.143622,-1.131423,0.243528
849,-0.119033,-1.134082,0.22479
850,0.051009,-0.945756,-0.138145
851,0.593729,-0.614981,-0.57701
852,0.987831,0.008703,-0.785947
853,-0.507746,1.624144,0.37462
854,0.024691,1.241064,-0.376545
855,-0.848072,0.225757,-0.192788
856,-0.231835,-0.157409,0.024237
857,-0.435966,0.083682,0.16142
858,-0.607117,0.620485,0.498245
859,-0.737329,0.727588,0.797911
860,-0.39003,0.693784,0.63961
861,-0.023512,0.499289,0.06488
862,0.123097,0.089028,-0.187516
863,0.261177,-0.3332,-0.135504
864,0.349537,-0.779515,-0.073669
865,0.479036,-0.727716,-0.050869
866,0.624478,-0.749088,0.053628
867,0.630769,-0.761357,0.172345
868,0.29725,-0.981045,0.446881
869,0.180893,-0.909067,-0.05083
870,0.291716,-0.904338,-0.900999
871,0.330036,-0.782993,-0.774838
872,0.079954,-0.255639,-0.483923
873,-0.30625,1.408652,0.120664
874,-0.836763,2.785033,0.382893
875,-1.460275,3.067418,-0.410112
876,-0.235862,1.103138,-0.131328
877,0.006672,0.338835,-0.111199
878,-0.69651,-0.188452,0.498766
879,-0.703152,-0.193207,0.474547
880,-0.376035,-0.205204,0.283617
881,0.431093,-0.797114,0.078081
882,0.398871,-0.801519,0.099341
883,0.757149,-0.996463,0.139152
884,0.5658,-0.957246,0.250573
885,0.056689,-0.973389,0.382264
886,-0.083313,-1.092908,0.233465
887,0.417514,-0.864355,-0.398743
888,1.050053,-0.508142,-0.726897
889,0.754958,1.106898,-0.498735
890,-0.616339,1.692993,0.506985
891,-1.052516,0.859889,-0.11008
892,-0.725438,0.450998,0.003398
893,-0.158305,0.295014,-0.160833
894,-0.027744,0.008468,-0.013893
895,-0.365754,0.46964,0.493173
896,-0.691683,0.823834,0.835932
897,-0.323212,0.665434,0.589027
898,0.237756,0.216678,-0.025442
899,0.134582,0.006852,-0.036463
900,0.16894,-0.563032,-0.078776
901,0.281984,-0.900743,-0.063379
902,0.374568,-0.965078,-0.04445
903,0.604712,-0.994183,0.084891
904,0.20208,-0.647043,0.433702
905,0.280315,-0.700939,0.11389
906,0.413409,-0.741868,-0.820566
907,0.511558,-0.720907,-0.84854
908,0.39472,-0.207216,-0.393843
909,0.151083,0.423169,-0.267557
910,-0.396774,2.207089,0.460743
911,-1.230039,2.974217,-0.239616
912,-1.097099,2.225912,-0.282616
913,-0.302625,0.066448,-0.205046
914,-0.63522,-0.342435,0.117047
915,-0.824431,-0.125226,0.427412
916,-0.521693,-0.209808,0.483718
917,-0.039865,-0.387204,0.396021
918,0.563355,-0.577568,0.337797
919,0.876244,-0.80656,0.255691
920,0.962678,-0.979803,0.02862
921,0.505716,-1.115355,0.125773
922,0.249847,-1.133058,0.18715
923,0.358698,-0.782119,-0.526915
924,0.581296,-0.509012,-0.712672
925,0.786189,-0.08888,-0.785493
926,0.214478,1.296993,-0.169807
927,0.173148,1.282795,-0.193186
928,-1.218275,0.661897,0.0649
929,-0.014386,-0.117367,0.115301
930,0.156447,-0.173915,0.103069
931,-0.045323,0.427132,0.191545
932,-0.30957,0.664768,0.682577
933,-0.297695,0.671695,0.703886
934,0.107495,0.48986,0.422045
935,0.073182,0.143956,0.191507
936,-0.04351,-0.157419,0.087131
937,0.039683,-0.606735,-0.157908
938,0.162222,-0.868713,-0.246555
939,0.330111,-0.833606,-0.14686
940,0.387324,-0.865859,0.239604
941,0.290992,-0.920764,0.505165
942,0.239561,-0.872914,0.435595
943,0.476903,-0.852263,-0.678948
944,0.43133,-0.631732,-0.552507
945,0.27807,-0.187757,-0.590745
946,0.123108,1.190199,-0.202453
947,-0.555444,2.51337,0.40924
948,-1.402467,3.091252,-0.219569
949,-0.740233,1.24391,0.10326
950,-0.417673,0.469859,0.008571
951,-0.711545,-0.470837,0.181382
952,-0.898505,-0.155457,0.384314
953,-0.570432,-0.348763,0.369074
954,0.097871,-0.560027,0.337898
955,0.477826,-0.535559,0.389094
956,0.860947,-0.632291,0.317482
957,1.038699,-0.845534,0.164801
958,0.548741,-1.064032,0.189108
959,0.195318,-1.136879,0.198864
960,0.049922,-0.94146,0.039486
961,0.554366,-0.638712,-0.580068
962,0.942508,-0.141217,-0.528065
963,0.507415,1.262556,-0.097468
964,-0.449356,1.893683,0.548514
965,-1.249287,0.712847,-0.394788
966,-0.644606,0.303608,-0.422759
967,-0.238744,0.077745,-0.121184
968,-0.366106,0.158584,0.182989
969,-0.41143,0.374722,0.42366
970,-0.366667,0.783327,0.941589
971,0.269241,0.63925,0.736766
972,0.469058,0.357582,0.264092
973,0.290862,0.114331,0.118474
974,0.102239,-0.719999,-0.158394
975,3.30E-05,-0.672718,-0.187569
976,0.046935,-0.697218,-0.221982
977,0.402844,-0.972213,0.223736
978,0.328642,-0.945967,0.400055
979,0.238775,-0.782185,0.490614
980,0.489452,-0.75602,-0.773362
981,0.456723,-0.776651,-0.739501
982,0.280968,-0.794732,-0.714177
983,0.178434,0.637049,-0.350687
984,-0.441014,2.100884,0.629735
985,-0.718908,3.032566,0.454497
986,-0.346533,0.937392,0.005093
987,-0.200827,0.281854,-0.140508
988,-0.593247,-0.291278,0.371129
989,-0.813017,-0.080202,0.464657
990,-0.69701,-0.189931,0.405634
991,0.293296,-0.714149,0.236476
992,0.734655,-0.66675,0.245712
993,0.811007,-0.77174,0.174133
994,0.684849,-1.014738,0.171016
995,0.317696,-1.198387,0.33862
996,0.241399,-1.145509,0.361679
997,0.377097,-0.777267,-0.234702
998,0.840701,-0.399967,-0.654055
999,0.882747,0.109284,-0.692406
1000,-0.137201,1.830438,0.359688
1001,-0.565415,1.477404,-0.372436
1002,-1.454921,0.630359,-0.125265
1003,-0.237325,0.092094,-0.06672
1004,-0.04369,-0.037808,0.070708
1005,-0.139625,0.293518,0.505005
1006,-0.404566,0.645549,0.841966
1007,-0.063389,0.576594,0.737689
1008,0.238161,0.584954,0.554007
1009,0.078718,-0.062946,0.091674
1010,-0.045344,-0.509794,-0.083136
1011,-0.07738,-0.557128,-0.241131
1012,0.193739,-0.742954,-0.310014
1013,0.395493,-0.998666,-0.065407
1014,0.417708,-0.851741,0.459853
1015,0.305555,-0.711001,0.508288
1016,0.397445,-0.736483,-0.722104
1017,0.534074,-0.716273,-1.155123
1018,0.563259,-0.325907,-0.367788
1019,-0.100004,1.110943,0.178299
1020,-0.379093,2.318527,0.675048
1021,-0.716435,2.967866,0.201601
1022,-0.262949,0.669809,-0.054631
1023,-0.2827,0.11516,-0.184481
1024,-0.37878,-0.293665,-0.074271
1025,-0.747384,0.009243,0.480885
1026,-0.598248,-0.188328,0.494264
1027,-0.287109,-0.256276,0.517625
1028,0.815439,-0.5181,0.225955
1029,1.04991,-0.552148,0.167796
1030,1.130561,-0.798477,0.105883
1031,0.527389,-1.115842,0.259866
1032,0.062563,-1.140845,0.160884
1033,0.338791,-0.873001,-0.453197
1034,0.865551,-0.556228,-0.760123
1035,0.636868,0.668079,-0.256907
1036,-0.380244,1.575859,0.337561
1037,0.125104,1.647203,-0.42913
1038,-1.068028,0.865908,-0.097275
1039,-0.244809,0.125106,-0.007492
1040,-0.092263,-0.129515,0.02629
1041,-0.131544,0.029026,0.103236
1042,-0.704944,0.600794,0.63349
1043,-0.517083,0.678331,0.549767
1044,-0.275117,0.623729,0.40873
1045,0.278995,0.364052,-0.115166
1046,0.169447,-0.155036,-0.006559
1047,0.358712,-0.778706,-0.067118
1048,0.525766,-0.925004,-0.023144
1049,0.60964,-1.056458,0.148935
1050,0.576776,-1.068361,0.251619
1051,0.271433,-0.781744,0.415024
1052,0.4212,-0.886572,-0.226034
1053,0.600065,-0.901246,-0.632488
1054,0.300721,-0.762167,-0.30489
1055,0.050012,0.077268,-0.393701
1056,-0.031057,0.861345,-0.310291
1057,-0.663867,2.642508,0.429278
1058,-1.083646,2.63896,-0.190919
1059,-0.730595,1.811668,-0.13986
1060,-0.254905,-0.029891,-0.181235
1061,-0.546826,-0.202672,0.210627
1062,-0.706913,-0.139309,0.407719
1063,-0.601065,-0.240459,0.466552
1064,-0.190361,-0.328722,0.530139
1065,0.063238,-0.36512,0.465397
1066,0.614835,-0.496234,0.241038
1067,0.783423,-0.943432,0.043254
1068,0.738046,-1.214473,0.164985
1069,0.346496,-1.329045,0.274983
1070,0.149253,-0.929334,0.135174
1071,0.589741,-0.631411,-0.360766
1072,0.909964,-0.164454,-0.53742
1073,0.091905,1.732612,0.54268
1074,0.068259,1.377573,0.113367
1075,0.382335,1.341236,-0.252339
1076,-0.655612,0.18066,0.112281
1077,-0.481817,-0.109837,0.086539
1078,-0.34634,0.188716,0.164764
1079,-0.464731,0.448414,0.520508
1080,-0.663949,0.603663,0.817747
1081,-0.254111,0.569154,0.491759
1082,0.123745,0.396731,0.158255
1083,0.108273,-0.03419,0.011089
1084,0.131758,-0.435767,-0.045373
1085,0.285568,-0.83902,-0.127235
1086,0.341105,-0.852485,-0.14573
1087,0.457343,-0.914144,0.125105
1088,0.32635,-0.937423,0.403104
1089,0.240846,-0.871832,0.403652
1090,0.289516,-0.864433,-0.276295
1091,0.523001,-0.961006,-0.800929
1092,0.573248,-0.913835,-0.826313
1093,0.25198,0.067367,-0.559529
1094,-0.699783,1.904814,0.698402
1095,-1.045539,3.362931,0.670255
1096,-1.215675,2.720582,-0.185466
1097,-0.381419,0.715502,-0.141085
1098,-0.26979,-0.350644,0.031187
1099,-0.637744,-0.406002,0.383377
1100,-0.552203,-0.519165,0.356524
1101,-0.321007,-0.689385,0.260059
1102,-0.029538,-0.800011,0.201943
1103,0.977315,-0.640615,0.012377
1104,0.948339,-0.646389,0.018013
1105,0.532469,-0.798472,0.244935
1106,0.050206,-0.856648,0.257915
1107,-0.001531,-0.971743,0.195309
1108,0.438817,-0.923817,-0.570649
1109,0.929242,-0.455956,-0.88359
1110,0.514278,1.443717,-0.490652
1111,-0.760405,1.803547,0.260617
1112,-1.051312,0.370709,-0.224953
1113,-0.29887,0.643762,-0.01905
1114,0.053654,0.245213,0.001352
1115,-0.242799,0.21184,0.46577
1116,-0.715979,0.832778,0.839255
1117,-0.638118,0.833543,0.696174
1118,-0.088318,0.395243,0.107323
1119,-0.075168,0.106293,-0.116407
1120,-0.016399,-0.303113,-0.068655
1121,0.094942,-0.617487,-0.25468
1122,0.297128,-0.654482,-0.115373
1123,0.547347,-0.899981,0.240262
1124,0.416235,-0.877706,0.47953
1125,0.331352,-0.853671,0.466496
1126,0.363748,-0.883243,-0.742738
1127,0.524435,-0.825169,-0.744087
1128,0.140319,-0.729936,-0.528726
1129,-0.104829,0.500547,-0.293497
1130,-0.49396,2.011382,0.506227
1131,-0.931566,2.785447,0.42032
1132,-0.683363,1.994613,-0.007257
1133,-0.212103,0.326024,-0.126051
1134,-0.138144,-0.140168,-0.127776
1135,-0.578464,-0.04613,0.460577
1136,-0.492572,-0.056182,0.424902
1137,-0.316874,-0.208596,0.428609
1138,0.489495,-0.694638,0.256057
1139,0.800193,-0.582649,0.090483
1140,0.783983,-0.728142,0.033616
1141,0.507183,-0.95334,0.133466
1142,0.237655,-1.243411,0.218301
1143,0.22955,-1.383036,0.145883
1144,0.671346,-0.755675,-0.392407
1145,0.902576,-0.122831,-0.430216
1146,0.491316,0.530099,-0.252612
1147,-0.359757,1.563349,-0.045317
1148,-0.950918,0.316322,0.019071
1149,-0.979874,0.307653,0.040737
1150,-0.18586,0.263088,0.07575
1151,-0.08899,0.357558,0.522139
1152,-0.077346,0.364829,0.558639
1153,-0.640285,0.801898,1.070788
1154,-0.259939,0.42933,0.169891
1155,-0.226732,0.150599,-0.062239
1156,-0.073017,-0.41353,-0.288538
1157,0.033424,-0.847136,-0.237306
1158,0.134544,-0.880589,-0.234684
1159,0.536063,-0.845522,-0.080814
1160,0.763373,-0.692458,0.302953
1161,0.600716,-0.714495,0.461941
1162,0.440126,-0.588171,-0.042962
1163,0.538588,-0.622836,-0.566098
1164,0.448604,-0.685695,-0.167503
1165,0.198556,-0.181579,-0.261628
1166,0.52552,1.445053,-0.141329
1167,-0.907334,2.170408,0.43922
1168,-1.06639,1.884942,-0.023051
1169,-0.51382,0.629039,-0.097022
1170,-0.433344,0.01431,-0.056366
1171,-0.562599,-0.08949,0.372256
1172,-0.433593,-0.139731,0.408893
1173,-0.29575,-0.285893,0.448275
1174,0.596277,-0.579233,0.450761
1175,0.936421,-0.914128,0.42207
1176,1.018902,-1.193887,0.218117
1177,0.622933,-1.176347,0.223006
1178,0.333804,-1.064912,0.238505
1179,-0.061553,-0.935255,0.188489
1180,0.384508,-0.701146,-0.349584
1181,0.809752,-0.509844,-0.703006
1182,1.105066,0.455165,-0.656493
1183,-0.277828,1.734951,0.237917
1184,-0.378153,1.024119,-0.451967
1185,-0.799586,0.229718,-0.003213
1186,-0.210597,-0.061901,-0.043077
1187,-0.274264,-0.009194,0.136979
1188,-0.528391,0.587109,0.421399
1189,-0.611673,0.829626,0.652113
1190,0.086507,0.535786,0.340276
1191,0.316019,0.569916,0.196462
1192,0.344859,0.345432,0.095773
1193,0.2275,-0.164823,0.074364
1194,0.30842,-0.570576,0.03209
1195,0.426805,-0.997886,-0.029151
1196,0.47421,-0.918957,0.145249
1197,0.476152,-0.92179,0.132523
1198,0.136714,-0.817623,0.388136
1199,0.289012,-0.947042,-0.059347
1200,0.313313,-0.980587,-0.449727
1201,0.367711,-0.818876,-1.11803
1202,0.42247,0.375072,-0.817149
1203,0.135731,1.18721,-0.147387
1204,-0.552815,2.643751,0.568607
1205,-0.944784,2.668644,0.061945
1206,-0.420091,1.462961,0.024853
