,userAcceleration.x,userAcceleration.y,userAcceleration.z
0,-0.467345,-1.027142,0.547306
1,-0.580374,-1.385261,0.813357
2,-0.618786,-1.079246,0.875975
3,-0.536336,-1.069238,0.786257
4,-0.441053,-1.085085,0.441396
5,-0.568312,-1.049295,0.159931
6,-1.060747,-0.610663,-0.7679
7,-1.677692,3.096734,1.417165
8,-0.451491,5.689268,0.382541
9,0.389443,-0.695168,0.734033
10,0.463974,-1.667006,0.992183
11,0.613359,-0.5986,0.208353
12,0.270038,-0.430786,-0.276767
13,0.170182,0.703609,-0.257566
14,0.427757,1.69065,-0.108261
15,0.769211,0.488639,-0.309747
16,1.268188,0.947838,-0.119655
17,0.540865,0.094463,-0.596398
18,0.303008,0.260522,-0.540534
19,-0.376627,0.460201,-0.199546
20,-0.242552,-0.531422,-0.237508
21,-0.206464,-0.768195,-0.194835
22,0.253922,-1.631828,-0.171569
23,0.277187,-1.352983,-0.081765
24,0.09737,-0.9417,0.360549
25,0.155339,-0.229989,-0.888087
26,1.755455,1.877374,0.101009
27,0.594244,2.562324,0.401018
28,-1.127814,1.471346,0.050244
29,-0.659544,1.034988,0.013319
30,-0.412596,0.917246,0.386723
31,0.460073,0.089187,-0.485544
32,0.348393,0.128167,-0.666937
33,0.46069,0.572239,-0.776771
34,0.531734,-0.384529,-0.003407
35,0.488559,-0.465313,-0.186417
36,0.141196,-0.665038,0.308239
37,-0.515115,-1.864604,0.989849
38,-0.688927,-1.372507,0.787973
39,-0.709861,-1.063601,0.694292
40,-0.61229,-0.986847,0.536454
41,-0.661857,-1.003501,0.322811
42,-0.850818,-0.849014,0.215456
43,-1.940522,5.444923,1.701215
44,-1.951738,5.437591,1.664632
45,0.666721,-0.811057,0.334485
46,0.593386,-1.278335,0.753442
47,0.538285,-1.398718,0.52051
48,0.14834,-0.937772,0.48004
49,0.183797,0.140524,-0.137138
50,0.584411,1.4787,0.238493
51,0.458166,1.223059,0.035888
52,0.951383,0.861215,-0.20977
53,1.565877,0.979534,-0.853791
54,0.58232,0.346635,-0.830232
55,-0.300572,0.228934,-0.126212
56,-0.295646,0.190121,-0.067354
57,-0.245975,-0.250625,-0.394207
58,-0.01985,-0.640121,-0.192148
59,0.228931,-1.392084,-0.116428
60,0.496571,-1.510041,0.091076
61,0.128108,-1.103106,0.048235
62,-0.135368,-0.87919,-0.190486
63,0.182614,-0.402414,-0.996984
64,1.116573,1.937117,0.107874
65,-0.190877,1.892849,0.613169
66,-0.589398,1.694316,-0.034516
67,-0.675821,0.522486,0.375567
68,-0.104358,0.139027,0.166857
69,0.624873,0.175534,-0.606379
70,0.814504,0.528412,-0.431618
71,1.012627,0.529812,-0.198629
72,0.357038,-0.169048,-0.114897
73,0.066629,-0.580218,-0.003316
74,-0.505332,-0.773672,0.41914
75,-0.654484,-1.369362,0.619835
76,-0.786053,-1.340914,1.018904
77,-0.786336,-1.06548,0.973759
78,-0.660667,-1.027548,0.728966
79,-0.76043,-0.841551,0.109403
80,-1.186,-0.405958,-0.588321
81,-1.418642,3.451433,1.392695
82,-0.106496,6.183646,0.224476
83,0.18854,-1.0874,0.535111
84,-0.503634,-0.969741,0.623165
85,0.818893,-1.761806,0.413925
86,0.652385,-0.88135,0.41724
87,0.020908,0.008094,-0.17749
88,0.783801,1.52132,0.059786
89,0.768906,1.636966,-0.076126
90,0.806156,0.71281,-0.427489
91,1.153324,0.268655,-0.461036
92,0.314751,0.330457,-0.692213
93,-0.239309,0.523465,-0.081162
94,-0.38007,0.181546,-0.194694
95,-0.220113,-0.375101,-0.150515
96,-0.092018,-0.637545,-0.276292
97,0.110905,-1.310503,-0.235812
98,0.228286,-1.116122,-0.066832
99,0.038543,-1.016659,-0.048242
100,-0.09564,-0.993247,0.195829
101,-0.266652,-0.573676,-0.137287
102,0.894112,0.985196,-1.415619
103,-0.313458,1.780058,0.373304
104,-0.512688,1.957396,0.116784
105,-0.78916,1.281931,0.082572
106,0.048451,0.024225,-0.022118
107,0.325928,-0.049794,-0.542688
108,0.176045,0.106742,-0.509101
109,0.428616,0.393738,-0.117296
110,0.775459,-0.447118,0.27748
111,0.335924,-0.665696,0.178057
112,0.069751,-0.689029,0.181286
113,-0.587456,-1.183454,0.454244
114,-0.850408,-1.324622,0.615408
115,-0.620069,-0.99642,0.581214
116,-0.603049,-0.965178,0.483278
117,-0.625059,-1.001903,-0.026027
118,-0.807406,-0.788493,-0.195195
119,-0.839007,-0.407461,-1.343269
120,-2.447878,4.678804,4.996741
121,1.153543,0.148553,0.615274
122,0.153479,-1.259898,1.554168
123,1.018433,-1.847803,0.514634
124,0.331529,-0.949746,0.312821
125,-0.14767,-0.886677,0.045905
126,0.3857,1.915604,-0.033953
127,0.606568,1.586596,-0.366183
128,0.265443,0.771446,-0.437835
129,1.148309,0.410443,-0.670664
130,0.454197,-0.001931,-0.412297
131,0.047274,0.023003,-0.42606
132,-0.07268,-0.241704,-0.421147
133,-0.123421,-1.107373,-0.194709
134,-0.002252,-1.269727,-0.264106
135,0.123748,-1.134956,-0.243674
136,0.003425,-1.019275,0.073141
137,-0.198152,-0.645557,-0.199521
138,0.166554,-0.357679,-0.753947
139,2.127376,1.975593,0.711945
140,0.03998,2.00617,0.581324
141,-0.894511,2.340052,-0.14844
142,-0.948022,0.927487,0.32596
143,-0.053015,-0.155429,-0.086703
144,0.243593,-0.108174,-0.410677
145,0.066084,-0.122794,-0.297693
146,1.088799,0.274031,-0.073518
147,1.04316,-0.432915,-0.14079
148,0.344229,-0.52251,-0.091279
149,-0.385932,-0.94325,0.37664
150,-0.783312,-1.572999,0.562198
151,-0.934252,-1.296112,0.814867
152,-0.829336,-0.951651,0.616373
153,-0.63262,-0.912178,0.296736
154,-0.815254,-1.047188,-0.030188
155,-1.071798,-0.548769,-1.831462
156,-2.601398,5.040751,4.157108
157,0.929983,4.548982,-0.095998
158,0.048785,-0.968525,1.410962
159,0.673314,-2.493023,1.194306
160,0.286895,-0.468622,-0.019377
161,0.039522,-0.440535,-0.294639
162,0.405564,1.085107,-0.390251
163,0.717255,0.814818,-0.049038
164,0.784692,0.380058,-0.403774
165,1.591992,0.323215,-0.339466
166,0.054475,-0.650388,-0.876412
167,-0.26338,-0.289819,-0.571012
168,-0.474549,0.049139,-0.007961
169,-0.346691,-0.522899,-0.01234
170,-0.212141,-1.111269,-0.149549
171,-0.095149,-1.294843,-0.121864
172,0.045594,-0.723682,0.05814
173,0.057956,-0.277203,-0.689792
174,1.779523,0.95162,-0.00018
175,0.085582,1.434974,0.176333
176,-0.149589,1.31433,0.147943
177,-0.682669,1.821225,0.094256
178,-0.384805,0.67389,0.35926
179,0.410306,-0.026967,-0.164881
180,0.302509,-0.008279,-0.413471
181,0.182864,0.480196,-0.261284
182,0.463163,0.129624,0.088068
183,0.497715,-0.538315,0.005077
184,0.03921,-0.638288,-0.087083
185,-0.501863,-1.41878,0.680159
186,-0.587332,-1.546284,0.832544
187,-0.72821,-1.34118,1.064426
188,-0.656771,-1.159909,0.690589
189,-0.550401,-1.12321,0.287717
190,-0.725153,-1.060226,-0.077415
191,-1.122009,-0.688393,-0.438414
192,-1.42514,1.172464,-1.707892
193,0.519853,7.049258,0.570134
194,0.187113,-0.293546,1.217039
195,-0.444113,-3.004741,1.546656
196,0.385516,-2.150278,0.300357
197,0.32241,-0.252714,-0.621147
198,-0.128185,0.447881,0.16466
199,0.501974,1.701522,0.259291
200,0.171104,0.949016,-0.100229
201,0.779833,0.358801,-0.059042
202,1.277589,0.274422,-0.302437
203,0.621678,-0.387232,-0.804984
204,-0.195099,-0.067926,-0.466235
205,-0.37237,-0.136868,-0.178828
206,-0.352712,-0.378045,-0.110623
207,-0.306944,-0.86081,-0.052888
208,0.010765,-1.25934,-0.141291
209,0.105392,-1.184744,-0.135879
210,0.123251,-0.949796,0.271759
211,0.184237,-0.470046,-0.494997
212,0.91312,-0.113013,-0.633914
213,0.717677,1.833249,0.449941
214,-0.455193,2.28639,-0.237952
215,-0.796248,1.437607,0.26709
216,-0.714704,0.981534,0.258585
217,0.396123,-0.043776,-0.194437
218,0.541776,-0.054276,-0.309652
219,0.75013,0.234481,-0.261685
220,0.900833,-0.12459,-0.046794
221,0.673056,-0.355761,-0.185262
222,0.160901,-0.473537,0.023775
223,-0.499448,-0.786063,0.177254
224,-0.697001,-1.221033,0.503112
225,-0.789911,-1.133395,0.769856
226,-0.704338,-0.928089,0.576768
227,-0.57222,-0.802173,0.30871
228,-0.565966,-0.831426,-0.035712
229,-0.839023,-0.736952,-0.230283
230,-0.770851,-0.293495,-2.16969
231,-1.337425,5.333979,3.276193
232,1.240355,4.105467,-0.115679
233,-0.215933,-0.963957,1.460851
234,-0.010723,-2.592542,1.180732
235,0.360449,-0.789431,0.157632
236,0.25727,-0.145128,-0.414489
237,-0.078239,0.778296,0.168889
238,0.286854,1.541714,-0.188869
239,0.227193,0.185513,-0.348829
240,0.752943,0.449402,-0.047513
241,0.98135,0.193611,-0.498299
242,0.462064,-0.098025,-0.684332
243,-0.226501,0.008447,-0.309076
244,-0.212189,-0.287907,-0.16778
245,-0.345182,-0.667797,-0.156014
246,-0.291038,-1.067268,-0.101314
247,-0.032694,-1.332288,-0.107904
248,0.175683,-1.128814,0.146808
249,0.058929,-0.739279,0.127216
250,1.374417,0.285127,-0.55274
251,2.232749,1.78849,0.105956
252,0.848715,2.294335,0.533692
253,-1.256252,1.123373,0.225687
254,-0.645142,0.707474,0.306643
255,-0.299405,0.358563,0.281665
256,0.458397,0.144701,-0.045263
257,0.321401,0.336264,-0.206672
258,0.651797,0.48102,-0.334396
259,0.694017,-0.441944,-0.081238
260,0.56709,-0.372558,0.000652
261,0.106366,-0.450651,0.108505
262,-0.652125,-1.006549,0.29849
263,-0.689408,-1.120464,0.291623
264,-0.712055,-0.976475,0.401692
265,-0.594652,-0.879771,0.19305
266,-0.582564,-0.869075,0.112416
267,-0.669493,-0.446611,-0.244865
268,-0.576788,1.294839,-0.336387
269,0.249958,4.177068,0.556546
270,0.150964,0.822988,0.340057
271,-0.557405,-0.515398,0.745826
272,0.102963,-1.268203,0.464743
273,0.559393,-0.283232,-0.065115
274,0.103735,0.453803,0.428015
275,0.037226,0.760593,0.411705
276,0.06213,0.978649,0.19575
277,0.390209,0.067779,-0.235255
278,0.813237,0.363215,-0.101117
279,1.246022,0.253729,-0.216488
280,0.792819,0.132272,-0.549915
281,0.245324,0.127158,-0.439659
282,0.256555,-0.244004,-0.228198
283,-0.060865,-0.151286,-0.095741
284,-0.078788,-0.524294,-0.168936
285,0.029786,-0.819852,-0.208372
286,0.08998,-1.022683,-0.104813
287,0.066796,-1.24081,0.034953
288,0.007481,-1.130134,0.078704
289,-0.054638,-0.95151,0.169076
290,0.111411,-0.540956,-0.399556
291,1.695188,1.262001,-0.449969
292,0.440386,2.616355,0.45805
293,-0.612366,1.519171,0.165006
294,-0.491357,0.837855,0.466157
295,0.366043,0.319664,0.225862
296,0.74601,0.239766,0.051965
297,0.555504,0.406198,-0.518829
298,1.005641,-0.107428,-0.052971
299,0.847565,-0.133851,-0.020332
300,0.326139,-0.524833,-0.078088
301,-0.149853,-0.592061,0.308105
302,-0.352719,-0.778864,0.475099
303,-0.667708,-1.076905,0.841611
304,-0.776873,-0.926875,0.623215
305,-0.68123,-0.999069,0.430245
306,-0.66859,-0.961619,0.239611
307,-0.867379,-0.885242,0.134702
308,-1.061548,-0.629533,0.074895
309,-0.781985,-0.09732,0.058818
310,1.039722,4.315985,0.735415
311,0.923246,1.819252,0.52516
312,0.66638,-0.364523,0.411031
313,0.587619,-1.290215,0.235461
314,0.477832,-0.767658,-0.017637
315,0.418765,-0.125726,-0.144701
316,0.562261,0.976665,0.246655
317,0.727128,1.002901,0.203358
318,0.750156,0.448054,0.083047
319,0.874277,0.744237,-0.365116
320,0.418511,0.659785,-0.73388
321,0.332447,0.766206,-0.242168
322,-0.057893,0.377177,-0.257059
323,-0.05452,-0.273401,-0.434201
324,-0.036857,-0.674725,-0.282375
325,-0.043837,-1.004646,-0.097637
326,0.053266,-1.419008,-0.085341
327,0.058203,-1.485536,0.211855
328,0.023525,-1.011889,0.258563
329,0.214316,-0.71085,-0.289946
330,0.859697,-0.006986,-0.535608
331,0.872264,2.134851,0.033337
332,-0.265323,1.951357,-0.014846
333,-0.425238,1.228905,-0.057352
334,-0.778753,1.107452,0.504609
335,0.085887,0.5174,0.071626
336,0.831555,0.332536,-0.156562
337,0.70155,0.186577,-0.393514
338,0.997455,0.371964,-0.550429
339,0.51575,-0.254487,-0.555137
340,0.66291,-0.855457,-0.107349
341,0.101824,-0.973893,0.366426
342,-0.634127,-1.113758,0.826501
343,-0.933036,-1.428229,0.92678
344,-0.833723,-1.011133,0.869151
345,-0.753953,-0.764901,0.758608
346,-0.839423,-0.744733,0.55903
347,-1.068237,-0.667057,0.16528
348,-0.912022,-0.199312,-0.384801
349,-0.546049,4.992322,-0.128992
350,0.664897,0.537185,0.22662
351,0.01903,0.039619,0.569258
352,0.161804,-1.118395,0.473372
353,0.433723,-1.315129,0.300767
354,0.281632,-0.463494,0.211764
355,-0.023765,0.490095,0.125693
356,0.059939,0.778884,-0.027239
357,0.980733,1.067467,-0.199538
358,1.203023,0.40017,-0.284781
359,1.284709,0.238507,-0.629293
360,0.51461,0.292877,-0.688591
361,0.071696,0.472988,-0.228823
362,-0.121202,0.255156,-0.36057
363,-0.221106,-0.451225,-0.529755
364,-0.060723,-0.8177,-0.137498
365,0.085125,-1.198055,-0.112928
366,0.118111,-1.346983,-0.046473
367,-0.100371,-0.827214,-0.091283
368,-0.089875,-0.539547,-0.727533
369,1.137142,0.939157,-0.278571
370,0.457483,1.606674,0.521229
371,-0.003168,1.755916,0.262207
372,-0.436146,1.169176,0.054572
373,-0.633605,0.902024,0.386586
374,0.136917,0.011506,-0.280923
375,0.224513,-0.027411,-0.391364
376,0.206117,0.384502,-0.233807
377,0.87876,0.015535,-0.186886
378,0.344905,-0.303895,-0.169663
379,0.188632,-0.541618,-0.057341
380,-0.370581,-0.766796,0.126157
381,-0.86847,-1.481762,0.642163
382,-0.926716,-1.668462,0.985556
383,-0.964985,-1.150257,0.935802
384,-0.865555,-0.834887,0.511132
385,-0.680702,-0.932927,0.096608
386,-1.104759,-0.470701,-0.35522
387,-0.383662,0.686805,-1.090201
388,0.998342,7.114155,0.577907
389,-0.14561,0.073301,0.121414
390,-1.033684,-0.710386,0.781558
391,0.232187,-2.250888,0.526796
392,-0.1017,-0.081103,0.796771
393,-0.011267,0.509983,0.235725
394,0.503766,1.51843,0.235031
395,0.932761,0.376259,-0.371271
396,1.588064,0.423953,-0.727247
397,1.144335,0.2446,-1.26669
398,-0.099289,0.360576,-0.624091
399,-0.38844,0.530208,-0.018321
400,-0.251366,-0.111895,-0.090912
401,-0.174669,-0.393539,-0.219965
402,-0.074238,-0.832157,-0.241029
403,0.285232,-1.624694,-0.17052
404,0.293625,-1.105415,-0.234937
405,-0.221534,-0.76294,-0.013755
406,-0.293345,-0.701232,-0.667223
407,0.918865,1.089278,-1.1844
408,0.461306,2.223481,0.809371
409,-0.245911,2.322833,-0.067314
410,-0.365447,0.7068,0.384731
411,-0.358739,0.210192,0.222656
412,0.33526,-0.030766,-0.425605
413,0.600453,0.086983,-0.54555
414,0.487748,0.290539,-0.452856
415,0.776283,-0.297172,-0.102792
416,0.414901,-0.55258,-0.249546
417,-0.313636,-0.660579,0.035171
418,-0.881486,-1.164724,0.641991
419,-0.910952,-1.355643,0.66875
420,-0.822995,-0.969769,0.846406
421,-0.791013,-0.793593,0.462346
422,-0.629511,-0.842896,0.036778
423,-1.01483,-0.28368,-0.241057
424,-0.337036,0.302411,-0.548273
425,0.165841,6.106082,0.505018
426,-0.160435,3.847058,0.322322
427,-0.606064,0.077829,0.314785
428,0.497998,-2.043141,0.261775
429,-0.120915,-0.446,0.536354
430,0.026514,0.09761,0.091999
431,1.153748,1.449603,0.181032
432,1.202496,1.238225,0.085369
433,0.875709,0.098061,-0.290831
434,0.910801,0.493834,-0.854277
435,0.63021,0.302062,-1.004454
436,0.254613,0.286188,-0.700286
437,-0.496898,-0.011785,-0.479489
438,-0.525836,-0.214034,-0.523097
439,-0.409652,-0.299948,-0.309235
440,0.105524,-1.449385,-0.19743
441,0.357977,-1.589077,-0.087198
442,0.337988,-1.136833,-0.197411
443,-0.113176,-0.928817,0.11153
444,0.144169,-0.585562,-0.859916
445,1.916893,1.471679,-0.499845
446,-0.13865,2.500264,0.459851
447,-0.404676,1.883666,-0.348808
448,-0.535064,1.106658,0.383748
449,-0.461008,0.997111,0.268747
450,0.434857,-0.021265,-0.321711
451,0.423192,0.373788,-0.474815
452,0.699041,0.381847,-0.069473
453,0.691426,0.101845,0.029077
454,-0.010736,-0.699593,-0.386338
455,-0.242286,-0.731224,-0.232673
456,-0.88561,-1.729455,0.847003
457,-1.013259,-1.540643,1.239526
458,-1.026706,-1.402162,1.100603
459,-0.711098,-0.928289,0.536957
460,-0.601114,-0.843064,0.151257
461,-1.068597,-0.41135,-0.069304
462,-1.04417,1.266874,-1.183164
463,1.047616,7.041648,0.597877
464,-0.565981,-1.575031,0.584906
465,-1.011851,-1.68512,1.156512
466,0.553795,-2.251463,0.771873
467,0.464208,-0.974866,0.563901
468,0.106689,0.699429,-0.636988
469,0.870941,2.076584,0.558384
470,0.538008,1.959302,-0.11266
471,0.32522,-0.10944,-0.090732
472,1.572986,0.04505,-0.460362
473,1.026347,-0.029057,-0.693088
474,-0.174383,-0.070549,-0.54506
475,-0.267882,0.063322,-0.314986
476,-0.7325,0.221907,-0.1665
477,-0.403983,-0.211129,-0.238658
478,-0.190014,-0.682878,-0.197283
479,0.155533,-1.152797,-0.01888
480,0.346755,-1.100066,-0.036661
481,-0.051161,-0.867158,0.113257
482,-0.107848,-0.621276,-0.51338
483,1.780384,0.808024,-0.562135
484,0.178648,1.994588,0.142579
485,-0.163062,1.866739,-0.137303
486,-0.75722,1.220642,0.170779
487,-0.414757,0.319543,0.165855
488,0.234176,0.037576,-0.062662
489,0.29448,-0.204704,-0.346027
490,0.156705,0.189944,-0.211523
491,0.804564,0.025375,0.193048
492,0.271514,-0.23875,-0.133068
493,-0.216577,-0.520426,0.018967
494,-0.676298,-0.780742,0.032223
495,-0.831697,-1.285748,0.414419
496,-0.950416,-1.254657,0.787023
497,-0.842681,-0.936168,0.611277
498,-0.66084,-0.892236,0.19681
499,-0.955049,-0.635849,-0.223463
500,-0.410987,-0.095324,-1.758445
501,-0.96309,3.056039,2.079089
502,0.353676,1.961492,0.047258
503,-0.403297,-1.017568,1.069351
504,-0.493302,-1.364587,1.185006
505,0.625933,-0.534615,0.371966
506,0.526923,-0.342359,0.16881
507,0.028563,0.351485,0.099668
508,0.087864,1.23972,-0.201566
509,0.358119,0.612571,-0.376263
510,0.871844,0.451202,-0.32274
511,0.854573,0.013141,-0.794271
512,-0.05582,-0.125514,-0.664812
513,-0.290614,0.293323,-0.198041
514,-0.25591,-0.264803,-0.185928
515,-0.236596,-0.647294,-0.311699
516,-0.145781,-1.145753,-0.231202
517,0.164129,-1.341583,-0.197958
518,0.177638,-0.981357,-0.03506
519,-0.005558,-0.77954,0.208971
520,0.48838,-0.334949,-1.209502
521,1.481345,2.088119,0.38309
522,0.325336,2.073844,0.424536
523,-0.792887,1.836837,0.117766
524,-0.629625,1.268231,0.49861
525,-0.453753,1.07532,0.319641
526,0.616016,-0.157947,-0.148672
527,0.361751,0.071735,-0.493913
528,0.587696,0.442369,0.061673
529,1.063057,-0.262474,-0.257423
530,0.274875,-0.59984,-0.140449
531,-0.152964,-0.623106,-0.044708
532,-0.623471,-1.022515,0.315397
533,-0.861304,-1.26156,0.783502
534,-0.887005,-1.071472,0.843495
535,-0.795481,-1.042284,0.575259
536,-0.761019,-0.991733,0.35722
537,-0.904915,-0.957006,-0.009186
538,-1.012299,-0.49752,-1.898664
539,-0.580506,5.859389,3.113354
540,0.902535,3.916647,-0.202345
541,-0.99368,-2.213288,1.542724
542,0.401219,-1.754747,0.617866
543,0.56437,-0.442193,0.365515
544,0.150319,0.543228,-0.446371
545,0.288866,1.851714,0.477601
546,-0.038398,1.450234,-0.071195
547,0.345361,-0.137025,0.13402
548,1.328918,0.410727,-0.281088
549,1.167807,0.274814,-0.727802
550,-0.000408,0.50322,-0.630918
551,-0.400928,0.479246,-0.131825
552,-0.284027,-0.128825,-0.262662
553,-0.23159,-0.598586,-0.486935
554,-0.192881,-0.790244,-0.350314
555,-0.036279,-1.224064,-0.069917
556,0.282873,-1.108181,-0.182259
557,0.134984,-0.970211,-0.12845
558,-0.131204,-0.6091,-0.128268
559,0.731923,-0.017599,-1.526468
560,1.544968,2.755886,0.676706
561,-0.526995,1.811464,0.086818
562,-1.083197,1.612802,0.297086
563,-0.465989,1.12913,0.25245
564,0.293072,-0.052046,0.079651
565,0.694999,-0.10296,-0.22694
566,0.144331,0.27911,-0.145041
567,0.849691,-0.461049,0.098946
568,0.445498,-0.451021,-0.226208
569,-0.147158,-0.7067,-0.124622
570,-0.546158,-0.709047,-0.097942
571,-0.708281,-0.767288,0.154621
572,-0.795245,-0.934437,0.489108
573,-0.77437,-1.002324,0.627045
574,-0.614547,-0.990396,0.591017
575,-0.520283,-0.975943,0.336301
576,-0.781141,-0.800423,0.227146
577,-0.319714,-0.668683,-1.842371
578,0.556138,6.935318,0.713036
579,-0.100111,1.382268,0.038383
580,-0.700748,-1.436112,1.389879
581,0.110021,-2.48357,0.922967
582,0.77488,-0.325976,0.536592
583,0.113867,0.276728,-0.227808
584,0.312658,1.41597,0.620527
585,-0.024034,0.873964,-0.384791
586,-0.136784,-0.041561,-0.179482
587,1.321549,0.59145,-0.189346
588,1.129447,0.251347,-0.455335
589,0.801538,-0.029482,-0.554129
590,-0.328753,0.267839,-0.389947
591,-0.405858,0.057574,-0.38537
592,-0.315206,-0.20396,-0.398563
593,-0.070237,-1.041486,-0.158525
594,0.056385,-1.238714,-0.080966
595,0.365136,-1.191158,0.050288
596,-0.038977,-0.79498,0.044914
597,0.616573,-0.54989,-1.069165
598,2.032556,2.034297,0.136681
599,0.623403,2.263372,0.499976
600,-0.510733,1.9135,0.218915
601,-0.592788,0.96106,0.322158
602,-0.484071,1.153463,0.345363
603,0.378253,0.111438,0.091108
604,0.334652,0.129612,-0.329538
605,0.271893,0.417549,-0.455496
606,0.97324,0.043847,0.021575
607,-0.037002,-0.650257,-0.054352
608,0.028621,-0.516514,-0.004499
609,-0.377705,-0.76894,0.211843
610,-0.685997,-1.140117,0.42448
611,-0.845256,-1.049583,0.640519
612,-0.942325,-1.114601,0.593756
613,-0.808859,-1.11971,0.416446
614,-0.716925,-1.051852,0.045324
615,-0.972604,-0.507804,-0.595724
616,-0.663275,0.972221,-1.532948
617,2.233396,7.087762,0.144314
618,-0.657229,-0.226539,0.845163
619,-0.904021,-2.638,1.717736
620,-0.224819,-2.03989,0.986448
621,0.442009,-0.020325,0.224348
622,0.121788,0.261152,-0.413657
623,0.319072,2.005109,0.662936
624,-0.316303,0.491926,-0.20272
625,0.175183,-0.174135,-0.228831
626,1.538422,0.526443,0.005578
627,1.274612,0.358665,-0.41897
628,0.083293,0.231731,-0.627358
629,-0.033796,0.535664,-0.091393
630,-0.112739,0.158342,-0.214521
631,0.004977,-0.378169,-0.393904
632,-0.012537,-0.797013,-0.395181
633,0.006244,-1.083539,-0.098914
634,0.143184,-1.308372,-0.082421
635,0.083957,-1.095484,0.218217
636,-0.18175,-0.715077,-0.107907
637,1.046992,-0.50028,-0.923069
638,1.181636,2.445073,0.481259
639,-0.199898,1.916043,0.392725
640,-0.739318,1.025351,0.350861
641,-0.434058,0.524299,0.202476
642,0.13207,0.001474,0.045408
643,0.218807,0.245606,-0.272868
644,0.007528,0.588566,-0.353764
645,1.288391,-0.376574,0.302282
646,0.710519,-0.17183,-0.371448
647,0.374058,-0.232673,-0.245187
648,-0.2799,-0.779458,0.230791
649,-0.584446,-1.225559,0.322908
650,-0.655364,-1.14221,0.376151
651,-0.894047,-0.908944,0.48796
652,-0.732407,-0.84576,0.460257
653,-0.501095,-0.847052,0.23477
654,-0.651475,-0.756118,0.024917
655,-0.651035,-0.397523,-1.009617
656,-0.112668,3.617486,1.663998
657,1.240628,6.433835,0.091076
658,-0.506927,-0.21378,0.78593
659,-0.470362,-1.518419,1.293584
660,0.299707,-1.080422,0.820396
661,0.139141,-0.275346,0.408978
662,0.327704,1.391278,0.24316
663,0.155375,1.229183,0.285144
664,-0.071752,0.421252,-0.168437
665,1.312673,0.395393,0.019489
666,1.346184,0.38498,-0.031211
667,0.622774,-0.09361,-0.468407
668,0.002666,-0.007705,-0.277979
669,-0.147162,0.030388,-0.201057
670,-0.281789,-0.08006,-0.209744
671,-0.23946,-0.626013,-0.312358
672,-0.252023,-0.952433,-0.168822
673,-0.188046,-1.112561,-0.080075
674,0.009925,-0.92285,0.221841
675,-0.032224,-0.689085,-0.151179
676,2.025664,0.665941,0.345014
677,0.253486,1.286175,0.194935
678,-0.128603,1.69812,0.200445
679,-0.858885,0.951,0.270513
680,-0.53586,1.014511,0.342552
681,-0.192262,0.464806,0.243183
682,0.384998,0.24972,-0.112106
683,0.33706,0.682597,-0.451141
684,0.882489,0.628925,-0.232855
685,0.672038,-0.347436,0.029207
686,0.160795,-0.305593,-0.071467
687,0.000876,-0.5139,0.195439
688,-0.438025,-1.053187,0.398381
689,-0.63985,-1.120611,0.363636
690,-0.716604,-0.910844,0.487526
691,-0.690444,-0.729836,0.369387
692,-0.551169,-0.7629,0.108861
693,-0.559469,-0.8147,-0.010655
694,-0.780156,-0.317991,-0.917878
695,-0.649174,2.42061,1.1728
696,0.395596,4.740416,1.264829
697,-0.257016,0.748299,0.533343
698,-0.310698,-0.100642,1.119388
699,0.12699,-1.352029,0.758207
700,0.19408,-0.422325,0.273126
701,0.00798,-0.111297,0.013114
702,0.239142,1.07803,0.384362
703,-0.21988,0.395463,-0.131271
704,-0.125462,0.210672,-0.192834
705,0.646968,0.0854,0.035128
706,0.771011,-0.101783,-0.144224
707,0.236573,-0.209657,-0.350458
708,-0.123998,0.001408,-0.288226
709,-0.248446,-0.114923,-0.083076
710,-0.249348,-0.484502,-0.020516
711,-0.279221,-0.803681,-0.128777
712,-0.233188,-1.060935,0.094969
713,-0.148279,-0.902952,0.068798
714,0.424698,-0.552878,-0.641536
715,2.015926,1.093055,0.449864
716,0.3277,1.290671,0.32922
717,-0.060992,1.689496,0.099235
718,-0.837472,0.921557,0.50081
719,-0.555601,0.735997,0.302532
720,-0.100815,0.270023,0.32049
721,0.304407,0.204625,0.196661
722,0.2373,0.34752,-0.03676
723,0.274174,0.298082,-0.149648
724,0.441952,-0.161934,0.069196
725,0.075535,-0.31336,0.067228
726,-0.120739,-0.333765,0.276611
727,-0.392085,-0.649151,0.299006
728,-0.628375,-0.920956,0.245231
729,-0.495509,-0.862336,0.214692
730,-0.343347,-0.701083,0.270101
731,-0.204413,-0.344852,-0.104743
732,-0.22052,-0.253035,-0.226983
733,-0.096538,-0.154007,-0.113504
734,1.625559,2.164838,1.320121
735,1.299966,2.859297,2.11343
736,-0.393692,0.737617,0.637323
737,-0.391238,-0.70791,0.520747
738,0.162957,-0.220619,0.103865
739,0.046545,0.650751,-0.083995
740,0.01448,0.529513,0.013364
741,0.201849,-0.017226,0.589305
742,0.125454,-0.028964,0.453866
743,-0.079626,0.043457,0.415901
744,0.054965,0.137452,0.421122
745,0.217942,0.057951,0.081797
746,0.217624,0.051817,-0.065662
747,0.233705,0.025029,-0.072627
748,0.227461,-0.153283,-0.095249
749,0.115974,-0.199061,-0.07785
750,0.046268,-0.221914,0.015844
751,0.024768,-0.283626,0.138796
752,0.013485,-0.242849,0.241241
753,0.022257,-0.230293,0.283977
754,0.06277,-0.371408,0.219595
755,0.094416,-0.42004,0.159112
756,0.127644,-0.39075,0.249055
757,0.0966,-0.324564,0.122254
758,0.246376,0.108868,-0.157434
759,0.864607,0.426443,0.202303
760,0.353026,0.68284,0.027183
761,0.058015,0.602695,0.088395
762,0.263632,0.411532,0.052113
763,0.457757,0.24874,0.157018
764,0.467209,0.184077,0.210446
765,0.465538,0.177702,0.196345
766,0.259447,-0.070102,0.131229
767,0.171616,-0.16416,0.251701
768,0.09844,-0.221004,0.219256
769,0.036125,-0.260802,0.268096
770,-0.163208,-0.493808,0.27861
771,-0.189873,-0.526212,0.217892
772,-0.20241,-0.569928,0.164187
773,-0.241961,-0.456932,0.05716
774,-0.176968,-0.42464,0.022475
775,-0.107297,-0.326051,-0.03364
776,0.619217,1.110516,-0.038872
777,0.758714,1.625799,0.861383
778,-0.035591,0.514802,0.519414
779,-0.479739,-0.2308,0.626618
780,-0.302631,-0.258405,0.264635
781,-0.140282,-0.268022,0.024505
782,0.397565,0.433798,-0.307547
783,0.62862,0.333182,-0.020401
784,0.551251,-0.099207,0.185116
785,0.392388,-0.273108,0.166752
786,0.323132,-0.147269,0.231794
787,0.073423,0.204501,0.104053
788,0.012501,0.322821,-0.034641
789,0.080525,0.27578,-0.077784
790,0.209286,-0.045032,-0.191403
791,0.317626,-0.141995,-0.138321
792,0.312367,-0.179757,-0.084985
793,0.275167,-0.153561,-0.103616
794,0.263289,-0.162305,-0.180914
795,0.200195,-0.212327,-0.301526
796,0.197022,-0.284883,-0.222443
797,0.199263,-0.311393,-0.151806
798,0.253606,-0.404516,-0.042806
799,0.251095,-0.406692,0.00159
800,0.272119,-0.305859,-0.024558
801,0.399391,0.100826,-0.072201
802,0.359091,0.648117,-0.084373
803,0.123095,0.596134,-0.006098
804,-0.064414,0.747172,0.015111
805,-0.068348,0.753645,0.0396
806,0.004102,0.5395,0.242071
807,0.230285,0.347951,0.212036
808,0.369294,0.269419,0.011324
809,0.319795,0.106216,-0.197731
810,0.376581,0.032226,-0.285984
811,0.403918,-0.049652,-0.234173
812,0.248423,-0.217467,-0.07455
813,0.005117,-0.433785,0.006495
814,-0.170366,-0.608785,0.058504
815,-0.275177,-0.697567,0.238669
816,-0.328035,-0.693107,0.358491
817,-0.366872,-0.635751,0.401393
818,-0.542949,-0.685843,0.221817
819,-0.506465,-0.69432,0.166633
820,-0.483152,-0.717109,0.175655
821,-0.551153,-0.403821,-0.412006
822,-0.721817,0.11528,-0.018754
823,1.347324,3.901266,-0.103305
824,0.157647,0.540133,0.207148
825,-0.445709,-0.438607,0.385822
826,-0.321626,-0.515301,0.393905
827,0.200737,0.200898,0.291228
828,0.010175,0.183096,0.236251
829,-0.244244,0.203005,0.277537
830,-0.077532,0.137011,0.035605
831,0.180599,0.36826,-0.059735
832,0.346128,0.335651,-0.051708
833,0.294329,0.06266,-0.167812
834,0.30318,0.026844,-0.204192
835,0.035025,0.035604,-0.23897
836,0.09438,0.008898,-0.334347
837,0.102726,-0.024056,-0.312196
838,0.187775,-0.270771,-0.301527
839,0.129868,-0.484885,-0.260868
840,0.049432,-0.676467,-0.181486
841,-0.024517,-0.759801,-0.081243
842,-0.026204,-0.788376,-0.085603
843,-0.018047,-0.721487,-0.177363
844,0.005448,-0.296424,-0.313525
845,0.327401,0.471023,-0.305061
846,0.525099,1.056859,0.082723
847,0.281267,1.226754,0.129303
848,-0.061272,0.750889,0.042852
849,0.014813,0.433704,-0.075691
850,0.222362,0.214974,-0.091965
851,0.413479,0.268261,-0.209896
852,0.197563,0.353183,-0.184131
853,0.132725,0.067285,-0.245699
854,0.21174,-0.096005,-0.04712
855,0.29255,-0.151168,0.020073
856,0.070737,-0.406994,0.117356
857,-0.314735,-0.772417,0.090674
858,-0.304134,-0.789189,0.053102
859,-0.475046,-0.637566,-0.022141
860,-0.46329,-0.702728,-0.070541
861,-0.466371,-0.72001,-0.067991
862,-0.46213,-0.709825,-0.054085
863,-0.483555,-0.688429,0.213154
864,-0.445014,-0.555255,0.099671
865,-0.27854,-0.116974,-0.081117
866,0.305077,1.491219,0.492371
867,0.389227,0.775527,0.229066
868,0.11815,0.339774,0.031527
869,0.46976,-0.304031,0.163708
870,0.423922,-0.192057,-0.116854
871,0.383729,0.115928,-0.258524
872,0.525916,0.242653,0.087322
873,0.136907,0.310039,0.194819
874,0.12612,0.256007,-0.006069
875,0.416741,0.297394,-0.010138
876,0.336956,0.373933,-0.166806
877,0.452047,-0.116121,-0.500678
878,0.344427,-0.314936,-0.473371
879,0.258066,-0.323328,-0.452283
880,-0.023583,-0.517918,-0.316452
881,-0.071125,-0.611618,-0.262568
882,-0.186377,-0.789898,0.024563
883,-0.134297,-0.836439,-0.233197
884,-0.032196,-0.743335,-0.219922
885,0.695827,0.734451,-0.093643
886,0.11017,1.053426,0.15392
887,0.026292,1.092454,0.135456
888,-0.480667,0.938203,-0.002351
889,-0.322132,0.875973,0.132206
890,-0.017032,0.408053,0.123181
891,0.413123,0.140713,0.027691
892,0.365093,0.26452,-0.141798
893,0.307513,0.152693,-0.257201
894,0.443933,-0.112929,-0.285387
895,0.232646,-0.204811,-0.173285
896,0.09447,-0.305605,-0.09338
897,-0.151269,-0.548467,0.068535
898,-0.346276,-0.819116,0.124895
899,-0.383014,-0.763707,0.203794
900,-0.396358,-0.729092,0.238092
901,-0.438262,-0.596958,0.267679
902,-0.347627,-0.531484,0.134303
903,-0.248861,-0.511152,-0.043565
904,-0.242948,-0.446804,-0.142013
905,-0.51345,-0.339596,-0.169449
906,-0.655264,-0.172964,-0.438053
907,0.304479,2.002517,0.136302
908,0.335677,2.637084,0.17366
909,-0.861659,-0.087875,0.445474
910,-0.283925,-0.30312,0.454809
911,0.028215,-0.645013,0.377285
912,0.043745,-0.222141,0.163215
913,0.132738,0.445679,0.019607
914,0.070254,0.218994,0.146108
915,-0.053993,0.196582,-0.040977
916,-0.005512,0.258411,0.238366
917,0.373195,0.11574,0.199969
918,0.449291,-0.009631,-0.052973
919,0.312328,0.115757,-0.563713
920,0.334525,0.087001,-0.601562
921,0.175698,0.0464,-0.523693
922,0.130287,-0.07508,-0.425956
923,0.155484,-0.025164,-0.395873
924,0.357654,0.002304,-0.245111
925,0.306723,-0.197049,-0.231066
926,0.144296,-0.397761,-0.28774
927,0.021201,-0.546287,-0.14012
928,-0.019657,-0.583612,-0.315172
929,0.063177,-0.664353,-0.33303
930,0.186033,-0.348207,-0.236572
931,0.320841,0.423345,-0.466073
932,0.532876,0.736662,-0.525171
933,0.534954,1.737116,-0.199239
934,-0.162555,1.164962,0.109817
935,-0.168182,0.579732,0.085116
936,0.182675,0.119489,-0.030481
937,0.420891,0.20221,-0.175351
938,0.293736,-0.087521,-0.245016
939,0.365547,-0.125285,-0.407362
940,0.265358,-0.13719,-0.324825
941,0.142458,-0.275418,-0.199438
942,-0.07678,-0.400679,-0.076427
943,-0.311629,-0.620078,0.103652
944,-0.561988,-0.692322,0.335127
945,-0.698011,-0.913443,0.389158
946,-0.806259,-0.915408,0.443788
947,-0.942687,-0.828298,0.410461
948,-0.883664,-0.781421,0.309795
949,-0.950156,-0.636733,0.229476
950,-1.009197,-0.182582,-0.352145
951,-0.244245,1.66176,0.997351
952,0.54292,3.141794,-0.117488
953,0.638975,0.155468,0.059961
954,0.461871,-0.243306,0.197055
955,0.383776,-0.298538,0.30979
956,0.270295,-0.624864,-0.381604
957,0.035602,-0.081096,0.29588
958,-0.059065,0.274441,0.326898
959,0.007054,0.407277,-0.007978
960,0.581247,0.549551,-0.207828
961,1.203922,0.591491,-0.445893
962,1.184078,0.327906,-0.727637
963,0.745895,0.129299,-0.909229
964,0.248644,0.548712,-0.425251
965,-0.112363,0.23341,-0.312833
966,-0.089787,-0.0497,-0.348393
967,-0.051511,-0.307744,-0.319474
968,-0.084269,-1.046095,-0.122242
969,-0.101588,-1.143965,0.143878
970,-0.115995,-1.075457,0.048294
971,0.334903,-0.312673,-0.246415
972,0.625453,0.10294,-0.225763
973,0.660406,0.752578,-0.132058
974,0.343955,1.211325,-0.022201
975,-0.3646,1.228052,0.13019
976,-0.435007,0.873358,0.333471
977,0.059155,0.533822,0.133228
978,0.559762,0.41363,-0.237316
979,0.65395,0.198395,-0.255888
980,0.697991,0.027132,-0.269632
981,0.459981,0.01065,-0.156259
982,0.171184,-0.281748,-0.157058
983,0.065958,-0.730878,-0.013437
984,-0.51569,-0.91111,0.332213
985,-0.880408,-1.090058,0.624579
986,-0.801051,-1.108252,0.771088
987,-0.82028,-0.920124,0.72248
988,-0.771982,-0.703726,0.440214
989,-0.843666,-0.661077,0.219492
990,-1.125893,-0.333801,0.004367
991,-0.41598,0.252602,-0.051831
992,0.139106,4.004144,0.045179
993,0.857771,3.729703,0.070555
994,0.382924,-0.268569,0.214238
995,0.351979,-0.427802,0.549529
996,0.281004,-1.271831,0.081331
997,0.044261,-0.272421,0.021346
998,0.004837,0.198119,0.207824
999,0.307421,1.026834,-0.037116
1000,0.901479,0.738841,-0.176077
1001,1.391298,0.633411,-0.358786
1002,1.274627,0.163123,-0.64945
1003,0.514411,-0.014998,-0.799421
1004,0.256548,0.438439,-0.271547
1005,-0.207701,0.292932,-0.117955
1006,-0.240912,-0.23355,-0.345072
1007,-0.134569,-0.820714,-0.273978
1008,-0.111467,-1.080853,-0.18361
1009,-0.070679,-1.34195,-0.157087
1010,-0.102384,-0.872855,-0.011502
1011,-0.128725,-0.867717,0.042769
1012,0.358227,-0.243214,-0.645536
1013,0.692622,1.557582,0.309292
1014,0.090087,1.695227,0.4549
1015,-0.069909,1.830365,-0.362425
1016,-0.683521,1.035706,0.298149
1017,0.350479,0.250449,-0.064555
1018,0.577121,0.097825,-0.241082
1019,0.733924,-0.217031,-0.513448
1020,0.744685,0.167995,-0.300856
1021,0.496799,-0.227811,-0.393754
1022,0.389343,-0.726897,-0.292946
1023,-0.27604,-0.793094,0.437187
1024,-0.896676,-1.200709,0.74634
1025,-1.029771,-1.30193,0.789036
1026,-0.913126,-0.932534,0.786522
1027,-0.848866,-0.648039,0.556609
1028,-0.869486,-0.64418,0.335767
1029,-0.975487,-0.517888,0.131914
1030,-1.048997,-0.180936,-0.626982
1031,-0.001958,2.773801,1.525489
1032,0.83031,3.570117,0.183301
1033,0.41101,-0.293334,0.123533
1034,0.111843,-0.433542,0.344489
1035,0.183677,-1.578117,0.344391
1036,-0.006568,-0.483872,0.106022
1037,0.200633,0.430349,0.293292
1038,0.086665,1.121489,0.193989
1039,1.21306,0.732269,-0.229969
1040,1.600633,0.425176,-0.27201
1041,1.362836,0.144343,-0.786676
1042,0.220198,0.047608,-0.830794
1043,0.031865,0.442031,-0.133397
1044,-0.400719,0.253445,-0.285053
1045,-0.437807,-0.195998,-0.577321
1046,-0.151135,-0.543312,-0.188117
1047,0.000826,-1.081361,-0.203762
1048,0.10196,-1.477744,-0.126427
1049,-0.046961,-1.05312,0.12847
1050,-0.080592,-0.693084,-0.560201
1051,1.27638,0.167979,-0.623949
1052,0.948496,1.602431,0.143157
1053,0.604504,1.765977,0.084862
1054,-0.637033,1.252885,-0.043575
1055,-0.559025,1.104029,0.512486
1056,-0.030668,0.530609,0.158478
1057,0.29797,0.388598,-0.117226
1058,0.376406,-0.25072,-0.68171
1059,0.872058,0.014328,-0.510139
1060,0.861439,-0.048602,-0.211942
1061,0.201938,-0.727224,-0.251387
1062,0.005246,-0.83544,0.131987
1063,-0.787083,-1.17304,0.739338
1064,-1.076436,-1.623893,1.137569
1065,-0.901196,-1.066886,1.130654
1066,-0.864664,-0.763688,0.793272
1067,-0.741642,-0.824294,0.429464
1068,-0.992127,-0.599522,0.064057
1069,-0.633978,-0.341248,-1.535349
1070,-0.099903,5.412618,0.465564
1071,0.576799,1.230068,0.31066
1072,-0.293213,-0.496142,0.505076
1073,0.050572,-0.953433,0.699159
1074,0.359768,-1.886271,0.422858
1075,0.332991,-0.255979,0.202404
1076,0.630639,1.038598,-0.184284
1077,1.03546,1.411979,-0.244762
1078,0.905445,0.716092,-0.345071
1079,1.155261,0.569114,-0.327796
1080,1.435692,-0.023865,-0.657362
1081,0.240316,-0.151701,-0.635666
1082,-0.304719,-0.181723,-0.235095
1083,-0.280755,0.132941,-0.330173
1084,-0.301199,-0.135194,-0.135253
1085,-0.096503,-0.690519,-0.149313
1086,0.026725,-1.350694,-0.097346
1087,0.160257,-1.218153,0.153591
1088,-0.036008,-0.787441,-0.503438
1089,0.991171,-0.182088,-0.309887
1090,0.806697,0.966519,-0.092175
1091,0.087928,2.020408,0.303658
1092,0.081818,1.924902,0.227412
1093,-0.337751,1.087044,0.527324
1094,-0.029037,0.785221,0.308413
1095,0.284347,0.007979,-0.074772
1096,0.63719,0.009416,-0.363929
1097,0.4003,-0.024492,-0.362773
1098,0.545243,0.059228,-0.130033
1099,0.227845,-0.570211,-0.17751
1100,-0.11597,-0.715055,-0.024283
1101,-0.710583,-1.123842,0.515182
1102,-0.91481,-1.370914,0.960243
1103,-0.766542,-0.938095,0.873582
1104,-0.719054,-0.757882,0.557897
1105,-0.835082,-0.643527,0.196911
1106,-0.878921,-0.0199,-0.628467
1107,0.282636,3.513615,1.074276
1108,0.048082,3.408852,0.414515
1109,-0.413617,-0.41779,0.134816
1110,-0.338781,-0.114414,0.752373
1111,0.368593,-2.078385,0.564817
1112,0.464095,-0.293869,0.651417
1113,0.906783,0.589832,-0.231792
1114,0.963337,0.980406,0.006232
1115,0.220893,0.665524,-0.370771
1116,1.199796,0.247691,-0.449154
1117,1.374135,0.300487,-0.627246
1118,0.248248,0.105807,-0.756449
1119,-0.283516,0.028655,-0.128906
1120,-0.200627,0.239662,-0.032229
1121,-0.108194,-0.124821,-0.026826
1122,0.05242,-0.637157,-0.173038
1123,0.092012,-1.324167,-0.130532
1124,0.327807,-1.313157,-0.010481
1125,-0.082893,-0.784923,0.005009
1126,-0.03057,-0.549402,-0.678105
1127,1.489203,0.509668,-0.279603
1128,0.877942,1.196746,0.367628
1129,-0.006477,1.375993,0.283573
1130,-0.164707,1.260845,-0.130961
1131,-0.255126,0.902072,0.227635
1132,0.46697,0.284804,-0.019344
1133,0.557062,-0.125009,-0.640508
1134,0.664737,0.194201,-0.333166
1135,0.855105,0.255727,-0.052265
1136,0.458398,-0.321014,-0.281596
1137,0.148408,-0.531292,-0.14226
1138,-0.500301,-1.077983,0.395903
1139,-1.114551,-1.797786,0.896295
1140,-1.03803,-1.316593,1.114354
1141,-0.881447,-0.871962,0.90083
1142,-0.827856,-0.866027,0.578247
1143,-0.859742,-0.860552,0.102806
1144,-0.804979,-0.38564,-2.070478
1145,-0.687983,5.997466,1.025932
1146,1.253367,7.024497,0.471256
1147,0.227248,-0.578311,0.399387
1148,-0.426408,-0.984266,0.893593
1149,0.595234,-0.807517,0.453223
1150,0.028489,-0.43631,0.076205
1151,0.549059,0.861497,0.077932
1152,0.662747,1.352439,-0.178252
1153,0.638578,0.380665,-0.200012
1154,1.439339,0.37344,-0.40866
1155,1.4062,0.117967,-0.626859
1156,-0.105589,-0.383118,-0.573269
1157,-0.319473,0.23056,-0.294326
1158,-0.368634,0.164405,-0.355329
1159,-0.370279,-0.498025,-0.108214
1160,-0.22237,-1.194982,-0.255085
1161,0.086392,-1.245992,-0.156664
1162,0.063304,-0.801138,0.258138
1163,0.103888,-0.406234,-0.884102
1164,2.142427,0.774052,-0.325339
1165,0.704061,1.664858,0.434135
1166,0.084353,1.777721,0.053291
1167,-0.4706,1.391613,0.31652
1168,-0.235858,0.764681,0.309498
1169,0.378016,-0.028185,0.033016
1170,0.242987,-0.225337,-0.270112
1171,0.268435,-0.142812,-0.476491
1172,0.752304,-0.231516,0.134145
1173,0.254378,-0.694795,-0.067178
1174,-0.243326,-0.62826,-0.163885
1175,-0.794573,-1.018868,0.304697
1176,-0.99633,-1.567242,0.742011
1177,-0.853012,-1.009855,1.061004
1178,-0.726515,-0.812313,0.739027
1179,-0.62101,-0.845677,0.286467
1180,-0.936896,-0.502461,-0.1369
1181,-0.451929,-0.273184,-2.47008
1182,0.632775,7.151782,0.650263
1183,-0.130774,-0.202976,0.25373
1184,-1.03002,-1.068226,1.144087
1185,-0.028269,-2.446331,0.764945
1186,0.547801,-0.442648,0.558135
1187,0.187343,-0.064103,0.378273
1188,0.796741,1.235397,0.011137
1189,0.397878,1.211682,-0.253246
1190,0.778494,0.384827,-0.489473
1191,1.79508,-0.009949,-0.561641
1192,0.694324,-0.387157,-1.09365
1193,-0.392063,-0.037585,-0.425835
1194,-0.327508,0.297742,0.083025
1195,-0.28151,-0.425688,-0.165946
1196,-0.314849,-0.665733,-0.127043
1197,-0.226993,-1.268773,-0.164889
1198,0.136046,-1.002824,-0.098524
1199,-0.103356,-0.565731,-0.10206
1200,0.289725,-0.256008,-0.720162
1201,1.955388,1.337971,0.048658
1202,0.780303,1.470168,0.519191
1203,0.335965,2.174188,-0.305879
1204,-0.5832,0.902963,0.346866
1205,-0.155909,-0.172807,0.073516
1206,0.28843,-0.119331,-0.156325
1207,-0.175329,0.152968,-0.138096
1208,0.099903,-0.171442,-0.232609
1209,0.42931,-0.646403,0.125601
1210,0.09277,-0.572442,-0.024886
1211,-0.430945,-0.593451,-0.193392
1212,-0.623681,-0.734343,-0.081038
1213,-0.759318,-0.866828,0.555771
1214,-0.617464,-0.739731,0.714865
1215,-0.44466,-0.642945,0.431208
1216,-0.590398,-0.604794,0.144533
1217,-1.038921,-0.114241,-0.484967
1218,-0.225507,2.044818,1.345679
1219,0.179546,3.852662,-0.141907
1220,0.119107,0.313155,0.051324
1221,0.345322,-0.025913,0.671775
1222,0.531905,-1.872328,0.356603
1223,-0.11883,-0.276426,0.305124
1224,-0.263547,-0.202648,0.458041
1225,0.509803,0.92234,-0.043176
1226,0.979099,1.184749,-0.396002
1227,0.918224,0.64736,-0.571154
1228,1.541224,0.038722,-0.632316
1229,0.512182,-0.341038,-0.819544
1230,0.214522,0.162342,-0.226903
1231,-0.184543,0.213466,-0.051924
1232,-0.251059,-0.245054,-0.352729
1233,-0.20435,-0.703366,-0.29396
1234,-0.163859,-1.199229,-0.313132
1235,0.000865,-1.393873,-0.291633
1236,0.059942,-1.090798,-0.108752
1237,-0.235716,-0.800317,0.144337
1238,-0.0647,-0.538791,-0.820009
1239,2.682359,1.549187,0.165952
1240,0.303385,1.701003,0.660413
1241,-0.600041,2.469674,0.203573
1242,-0.449034,0.308564,0.352787
1243,0.373308,0.055055,-0.158935
1244,0.416105,-0.08893,-0.318392
1245,0.415906,-0.079319,-0.43931
1246,1.067335,-0.104844,-0.188489
1247,0.439696,-0.450553,-0.191704
1248,0.113496,-0.570153,0.123618
1249,-0.418694,-0.980063,0.448016
1250,-0.863363,-1.278296,0.778392
1251,-0.937364,-1.115942,0.806854
1252,-0.722871,-0.722576,0.583006
1253,-0.628545,-0.588464,0.353914
1254,-0.791813,-0.487217,-0.149554
1255,-0.890088,-0.294439,-0.555138
1256,-1.07207,0.289408,-2.947548
1257,-0.294213,6.513545,2.139231
1258,1.007522,0.625708,0.687023
1259,-0.809326,-1.298709,1.327945
1260,-0.133213,-2.258836,0.572456
1261,0.470693,-0.749888,-0.154994
1262,0.698046,0.107033,-0.813202
1263,0.879258,1.277671,0.73294
1264,1.567975,1.85345,-0.176359
1265,-0.006234,0.008652,-0.16708
1266,1.396544,0.262586,-0.423197
1267,1.025332,0.099914,-0.98267
1268,-0.033625,-0.172502,-1.031502
1269,-0.30862,0.087758,-0.584247
1270,-0.472059,-0.063633,-0.218936
1271,-0.361911,-0.757635,-0.055614
1272,-0.32617,-1.072567,-0.135347
1273,-0.248882,-1.374914,-0.168008
1274,0.061526,-1.083648,-0.193064
1275,-0.088513,-0.949352,0.242965
1276,-0.067526,-0.660227,-0.099538
1277,1.376779,0.136242,-1.270274
1278,1.507589,2.302383,0.622445
1279,0.312349,2.472486,-0.437918
1280,-0.222488,2.68237,0.214933
1281,-0.226278,0.885609,0.248646
1282,0.278661,0.000184,0.012444
1283,0.339661,-0.193804,-0.084828
1284,0.044233,-0.081123,-0.414008
1285,0.922496,-0.514184,-0.07459
1286,0.182856,-0.692508,-0.136162
1287,-0.217988,-0.713392,-0.151136
1288,-0.92943,-1.281659,0.515885
1289,-1.001676,-1.11878,0.877879
1290,-0.877896,-0.721417,0.688116
1291,-0.692207,-0.730846,0.411351
1292,-0.674061,-0.720984,0.118147
1293,-1.0338,-0.144012,-0.471819
1294,-0.079065,2.675285,0.53884
1295,0.396955,6.602829,1.533816
1296,-0.342996,-1.058191,0.534401
1297,-0.671593,-1.089604,1.173379
1298,0.191774,-1.704635,0.68747
1299,0.305253,-0.81606,0.863517
1300,-0.093863,-0.088846,0.074756
1301,0.37823,1.185494,0.213097
1302,0.254766,1.147384,-0.135939
1303,0.700323,0.628603,-0.496695
1304,1.372845,0.715188,-0.653356
1305,0.519155,0.045476,-0.636985
1306,-0.049185,0.585375,-0.140429
1307,-0.072875,0.333775,-0.338811
1308,0.183238,-0.16017,-0.75109
1309,0.120984,-0.732504,-0.472585
1310,0.141449,-1.482305,-0.217058
1311,0.090154,-1.363668,0.213777
1312,-0.11674,-0.754005,-0.476523
1313,0.898089,-0.350156,-0.598869
1314,1.332702,0.787473,-0.363573
1315,0.763706,1.794266,0.180917
1316,0.037187,1.874753,0.279043
1317,-0.331943,1.048242,0.335874
1318,-0.223763,0.76049,0.352336
1319,-0.005188,0.104519,0.180903
1320,0.114828,0.160394,-0.04184
1321,0.104443,0.162237,-0.414337
1322,0.847852,-0.011821,-0.490463
1323,0.323117,-0.332911,-0.469736
1324,0.129839,-0.792319,-0.174582
1325,-0.685511,-1.195836,0.595391
1326,-1.004763,-1.579335,0.900144
1327,-0.974743,-1.408664,1.031342
1328,-0.910709,-0.748752,0.740142
1329,-0.801379,-0.618059,0.47333
1330,-0.943031,-0.122868,0.188731
1331,-0.252877,0.322875,-0.368145
1332,1.50153,5.011321,1.071684
1333,-0.876019,-1.180754,-0.02384
1334,-1.12409,-0.072733,0.469723
1335,-0.246535,-1.518183,0.782409
1336,0.165939,-1.099761,0.52847
1337,0.548197,0.266679,0.752373
1338,0.690251,0.649836,0.28188
1339,0.58666,1.08298,0.158979
1340,0.814954,0.269246,-0.330613
1341,1.433299,0.009872,-0.398269
1342,1.236471,-0.024385,-0.793046
1343,0.442193,0.214854,-0.672644
1344,-0.465288,0.460767,-0.06185
1345,-0.192571,0.319194,-0.149526
1346,-0.284106,0.009575,-0.493046
1347,-0.087271,-0.427203,-0.393181
1348,-0.017026,-1.031709,-0.314659
1349,0.10847,-1.389938,-0.132398
1350,0.10264,-1.272151,0.067511
1351,-0.234585,-0.599066,-0.606113
1352,1.551915,0.186237,-0.507539
1353,1.177631,1.122833,0.230505
1354,0.176167,1.361676,0.237933
1355,-0.266903,1.555502,0.293466
1356,-0.321231,1.119139,0.320818
1357,-0.141764,0.460122,0.072628
1358,0.38874,0.142108,-0.219194
1359,0.361678,0.06805,-0.257887
1360,0.51624,0.244774,-0.240579
1361,0.696855,-0.049297,-0.03368
1362,0.057533,-0.562232,-0.370269
1363,-0.212248,-0.694487,-0.197333
1364,-0.85316,-1.057185,0.286076
1365,-1.107502,-1.465018,0.77989
1366,-0.901891,-1.212968,1.046745
1367,-0.80016,-0.78731,0.682543
1368,-0.632477,-0.73583,0.363383
1369,-0.719105,-0.730044,0.083089
1370,-1.190766,-0.055262,-0.334387
1371,0.488962,2.536384,1.644287
1372,0.978431,6.211344,0.308355
1373,-0.885212,-0.7607,0.188057
1374,-1.085397,-0.6067,0.960414
1375,-0.220525,-1.990787,0.738915
1376,0.642177,0.061457,0.142792
1377,0.692888,0.452247,0.212077
1378,1.044553,1.124253,0.23744
1379,0.456204,0.234175,-0.327626
1380,0.552114,0.143109,-0.292419
1381,1.642715,0.161996,-0.569235
1382,1.031362,0.139187,-0.833931
1383,-0.308174,0.218233,-0.513819
1384,-0.285337,0.209296,-0.467801
1385,-0.162861,-0.160183,-0.548993
1386,-0.089848,-0.463319,-0.37672
1387,0.133336,-1.356887,-0.15248
1388,0.285198,-1.226716,-0.09066
1389,-0.003278,-1.118135,-0.004548
1390,-0.019811,-0.557255,-0.72402
1391,2.377464,1.085078,-0.221325
1392,1.297553,2.042455,0.932549
1393,0.35792,1.995945,0.104419
1394,-0.323702,1.233821,0.419127
1395,-0.176575,0.912086,0.359828
1396,0.381293,-0.023069,-0.079166
1397,0.219458,-0.178523,-0.255601
1398,0.060091,-0.078109,-0.120345
1399,0.940947,-0.261809,0.050113
1400,0.249193,-0.37841,-0.088275
1401,-0.074436,-0.668435,-0.222097
1402,-0.544923,-0.955724,0.243725
1403,-0.996896,-1.271936,0.662763
1404,-1.10038,-1.288518,0.943359
1405,-0.914753,-0.837879,0.770857
1406,-0.699124,-0.633755,0.367302
1407,-0.71828,-0.6675,0.031706
1408,-1.197501,-0.004123,-0.813118
1409,0.234213,3.981564,3.494781
1410,1.59115,5.190478,0.083886
1411,-0.653591,-0.742042,0.426687
1412,-0.574987,-0.627758,0.843605
1413,0.046632,-1.738456,0.443083
1414,0.124372,-0.488028,0.396546
1415,0.077934,0.157968,0.393449
1416,0.457176,0.986245,0.288091
1417,0.447254,0.921865,-0.159632
1418,1.30174,0.473573,-0.283509
1419,2.034728,-0.019664,-0.642553
1420,0.880849,-0.184123,-1.258522
1421,-0.025962,0.462079,-0.3925
1422,-0.360595,0.615827,0.099812
1423,-0.405586,0.274632,0.039733
1424,-0.299844,-0.710774,-0.299799
1425,-0.219256,-0.976879,-0.24171
1426,-0.15229,-1.252904,-0.173755
1427,-0.092138,-0.725001,0.249704
1428,-0.201585,-0.517719,-0.275636
1429,1.752689,0.538718,-0.533454
1430,1.750681,1.279246,0.330678
1431,0.119429,1.428195,0.358792
1432,-0.597888,1.618856,0.411446
1433,-0.700305,1.068342,0.557597
1434,-0.251185,0.338983,0.32275
1435,0.629709,-0.055184,-0.251695
1436,0.399018,-0.253092,-0.570083
1437,0.659921,-0.309311,-0.338767
1438,0.541718,-0.534963,-0.501121
1439,0.163004,-0.706547,-0.304033
1440,-0.568613,-0.793434,0.318622
1441,-1.22906,-1.53095,0.751124
1442,-1.320482,-1.312392,1.099403
1443,-1.117899,-0.763336,0.818412
1444,-0.813535,-0.738978,0.390603
1445,-0.816188,-0.489574,0.031905
1446,-0.80241,-0.21274,-1.461012
1447,1.669175,6.802396,0.396558
1448,0.055304,0.679687,0.110925
1449,-1.111558,-0.701769,0.54906
1450,-0.863404,-1.459229,0.90149
1451,0.14369,-1.4414,0.847774
1452,0.244645,0.004779,0.575481
1453,0.578837,0.773735,-0.34353
1454,0.763384,1.410503,0.265826
1455,0.544158,0.192594,-0.363287
1456,1.296875,-0.032249,-0.251371
1457,1.477792,0.026409,-0.885682
1458,0.541773,-0.007754,-0.472867
1459,-0.384094,0.464431,-0.072475
1460,-0.302336,0.301662,-0.302912
1461,-0.337332,0.103646,-0.575669
1462,-0.188418,-0.42448,-0.448345
1463,-0.036801,-1.249246,-0.197152
1464,0.062585,-1.329597,-0.113076
1465,0.077107,-1.208801,0.015112
1466,0.180169,-0.452454,-0.962102
1467,1.219648,0.230326,-0.860743
1468,0.767332,1.697101,0.725461
1469,0.129407,1.348205,0.313281
1470,-0.345184,1.437589,0.225387
1471,-0.393306,1.026647,0.542038
1472,0.05318,0.300854,0.238367
1473,0.271753,-0.045985,-0.076969
1474,0.336022,-0.316938,-0.529166
1475,0.744637,-0.038493,-0.172098
1476,0.473252,-0.187867,-0.111686
1477,0.087723,-0.551751,-0.360818
1478,-0.349344,-0.766534,0.104688
1479,-0.863786,-1.08272,0.548442
1480,-0.942509,-1.35109,0.815596
1481,-0.878222,-0.898349,0.837952
1482,-0.790313,-0.713377,0.646816
1483,-0.76911,-0.573522,0.191624
1484,-1.134225,-0.023851,-0.172273
1485,-0.803315,-0.098582,-1.368812
1486,0.815973,5.792886,0.368411
1487,-0.32514,-0.665322,0.218531
1488,-0.40359,-0.156681,0.695841
1489,0.18859,-0.995634,0.718336
1490,0.247601,-1.044822,0.367034
1491,0.091376,-0.205783,0.452864
1492,0.330336,0.450313,0.012713
1493,0.470435,1.257291,-0.074557
1494,1.097689,0.365877,-0.307353
1495,1.745399,0.175977,-0.335307
1496,1.114964,-0.069736,-1.216255
1497,0.077155,-0.304151,-0.76592
1498,-0.060964,0.442445,-0.025655
1499,-0.31498,0.155774,-0.183226
1500,-0.280125,-0.06708,-0.294941
1501,-0.274493,-0.808716,-0.237181
1502,-0.073503,-1.189667,-0.193608
1503,-0.105282,-0.973864,0.255167
1504,-0.240599,-0.726133,0.242328
1505,2.016875,0.504137,0.104918
1506,0.976391,1.146074,0.43761
1507,-0.033695,1.336009,0.160449
1508,-0.091687,2.174031,0.204708
1509,-0.318202,1.33143,0.419768
1510,-0.174,0.383506,0.143129
1511,0.39232,0.006882,-0.188492
1512,0.176343,0.150093,-0.313294
1513,0.659644,-0.163363,-0.274823
1514,0.810449,-0.448709,-0.054636
1515,0.148607,-0.770374,-0.258473
1516,-0.302849,-0.744663,-0.079148
1517,-0.954716,-1.23909,0.585986
1518,-1.187149,-1.528462,0.984124
1519,-1.088356,-1.070558,0.97866
1520,-0.776693,-0.825896,0.405981
1521,-0.70047,-0.933454,0.230593
1522,-1.167524,-0.328237,-0.094688
1523,0.253887,1.236534,0.309156
1524,2.513063,7.122118,0.338529
1525,-0.639607,-0.839632,0.591619
1526,-1.267055,-1.68901,1.19506
1527,-0.188685,-1.943978,0.51544
1528,0.47414,-0.330263,0.230021
1529,0.064817,0.544553,0.250095
1530,0.915774,1.894231,0.293747
1531,0.114858,0.671203,-0.266486
1532,0.468816,0.315476,-0.312833
1533,1.795741,-0.009303,-0.489251
1534,0.868724,-0.49947,-0.765908
1535,-0.145379,0.029091,-0.659318
1536,-0.292764,0.552917,-0.300229
1537,-0.379023,0.130218,-0.529998
1538,-0.321319,-0.339688,-0.339249
1539,-0.149335,-1.016689,-0.170801
1540,0.138407,-1.301058,-0.073242
1541,-0.035896,-0.966945,0.193833
1542,-0.251917,-0.533476,-0.481073
1543,1.691569,0.248901,-0.714022
1544,2.389085,1.222783,0.157578
1545,0.621955,1.407011,0.280547
1546,-0.628847,1.761131,0.449902
1547,-0.282901,1.145424,0.300218
1548,-0.032142,0.325409,0.104403
1549,0.292034,0.109477,-0.155918
1550,0.275301,0.565812,-0.383959
1551,0.845294,-0.233374,-0.118122
1552,0.905385,-0.471846,-0.104936
1553,-0.07895,-0.49609,-0.323756
1554,-0.2281,-0.609728,-0.020046
1555,-0.779598,-0.962489,0.527491
1556,-1.011472,-1.360219,1.087302
1557,-1.032606,-1.199979,1.040445
1558,-0.992902,-0.811614,0.650284
1559,-0.904779,-0.728862,0.148126
1560,-0.936943,-0.820391,0.029857
1561,-1.440658,-0.198628,-0.945369
1562,0.504708,3.358816,2.473848
1563,2.669759,6.36493,0.348447
1564,-0.995859,-1.201771,0.939
1565,-0.426974,-2.307034,0.67313
1566,0.420553,-0.549019,0.230024
1567,0.242427,-0.128876,-0.537702
1568,0.447662,1.20474,0.604759
1569,0.92029,1.556133,0.390817
1570,-0.159534,-0.410942,0.137804
1571,0.740063,-0.145691,0.107875
1572,1.254838,-0.024805,0.042957
1573,0.839824,0.051064,-0.520487
1574,-0.03614,0.415213,-0.607101
1575,-0.181477,0.351765,-0.35163
1576,-0.392667,0.064564,-0.407239
1577,-0.389724,-0.443604,-0.500288
1578,-0.348594,-0.651298,-0.389662
1579,-0.15983,-1.124946,-0.083087
1580,0.013437,-1.024509,0.049761
1581,-0.080971,-0.908648,0.32587
1582,-0.032754,-0.548824,-0.84163
1583,2.806731,1.163479,0.01818
1584,0.197526,1.57066,0.350465
1585,-0.290288,1.868618,0.049864
1586,-0.601132,1.289655,0.415139
1587,-0.375158,0.569045,0.206099
1588,0.277942,0.105942,-0.002191
1589,0.278897,0.08959,-0.281476
1590,0.288611,0.128681,-0.356384
1591,0.974079,-0.362536,0.420886
1592,0.652733,-0.549763,-0.300558
1593,0.096317,-0.474515,-0.177594
1594,-0.325817,-0.628968,0.132622
1595,-0.795426,-0.946048,0.308736
1596,-0.995962,-0.996098,0.686065
1597,-1.096112,-0.862907,0.745692
1598,-0.923033,-0.673512,0.353085
1599,-0.772601,-0.709255,0.128866
1600,-0.949198,-0.570867,-0.107127
1601,-0.50626,1.680373,-0.011565
1602,0.195773,5.364928,1.971667
1603,1.625088,3.835934,-0.0826
1604,-0.46062,-0.527205,0.9857
1605,-0.452102,-1.781211,0.851209
1606,0.543047,-0.912454,0.363152
1607,0.310976,0.007916,0.112255
1608,0.105823,0.60628,0.212501
1609,0.314656,0.915596,0.068864
1610,-0.013861,-0.015455,-0.136193
1611,0.094284,0.07193,-0.172577
1612,0.997371,-0.202633,-0.223588
1613,0.420379,-0.449678,-0.825468
1614,0.162232,-0.412896,-0.85424
1615,-0.30701,0.074275,-0.09247
1616,-0.468211,-0.104893,-0.125428
1617,-0.546004,-0.221002,-0.098453
1618,-0.466732,-0.829266,0.076411
1619,-0.284741,-1.161387,0.258027
1620,-0.214949,-1.088952,0.387071
1621,0.265194,-0.49881,-0.602797
1622,2.538146,0.619761,0.191647
1623,0.037084,0.645773,-0.223768
1624,0.001708,1.610793,-0.621854
1625,-0.439307,1.967239,0.537925
1626,-0.690033,0.529371,0.267403
1627,0.374969,-0.016402,0.059092
1628,0.697555,-0.060764,-0.257341
1629,0.537454,0.387143,-0.384791
1630,0.6576,-0.206156,0.267098
1631,0.317553,-0.488493,-0.105949
1632,-0.1853,-0.464827,-0.137723
1633,-0.338335,-0.635177,-0.066225
1634,-0.723145,-0.85605,0.142553
1635,-0.834993,-0.787504,0.235187
1636,-0.798814,-0.376389,0.0663
1637,-0.602488,-0.356903,0.153953
1638,-0.480296,-0.244769,0.259659
1639,-0.462641,-0.065453,0.210043
1640,-0.703721,0.286146,-1.07152
1641,0.308074,2.674968,2.753267
1642,0.178001,1.248188,-0.286609
1643,0.055461,0.089401,-0.240388
1644,0.410589,0.383341,0.067725
1645,0.29043,-0.513986,0.693672
1646,-0.148714,-0.251485,0.295729
1647,-0.208435,-0.179017,0.387408
1648,-0.152661,0.091289,0.420196
1649,-0.350507,0.472354,-0.109272
1650,-0.224345,0.388232,-0.141302
1651,0.618066,0.013833,-0.05832
1652,0.647899,-0.173848,-0.055231
1653,0.301999,-0.238644,-0.165431
1654,-0.004667,-0.089156,-0.241749
1655,-0.239426,-0.144009,-0.10314
1656,-0.32103,-0.229757,-0.064302
1657,-0.393359,-0.629703,-0.161224
1658,-0.383235,-0.840214,-0.131133
1659,-0.341296,-0.898566,-0.079442
1660,-0.226906,-0.907168,0.357182
1661,-0.025459,-0.684966,-0.356191
1662,0.334629,-0.637315,-0.953432
1663,1.333646,1.707959,0.572939
1664,-0.123532,1.641996,-0.265914
1665,-0.404412,2.208588,0.039846
1666,-0.646952,0.962538,0.27631
1667,-0.156452,0.02996,0.500977
1668,0.155251,-0.138949,0.446779
1669,0.258965,-0.060557,-0.335536
1670,0.358234,0.230898,-0.290809
1671,0.636607,-0.089472,0.083639
1672,0.190442,-0.274148,0.067044
1673,-0.167968,-0.312307,0.148936
1674,-0.304411,-0.414794,0.173455
1675,-0.806996,-0.665032,-0.020006
1676,-0.858937,-0.510102,-0.029527
1677,-0.754739,-0.366995,-0.032047
1678,-0.373625,-0.144296,-0.022157
1679,-0.203749,-0.049085,0.129758
1680,-0.191604,0.078425,0.121666
1681,0.05047,0.191997,0.419958
1682,0.283713,0.837329,-0.289729
1683,0.793119,1.414437,0.601873
1684,0.059155,0.412889,0.107398
1685,-0.110731,-0.2038,0.428728
1686,-0.10726,-0.284204,0.449078
1687,-0.007095,-0.228533,0.132618
1688,0.138973,0.30667,-0.06196
1689,0.206948,0.441579,0.350804
1690,-0.222688,0.036924,0.260702
1691,-0.18566,-0.065922,0.314002
1692,-0.014011,0.038094,0.315067
1693,0.112512,0.134059,0.168689
1694,0.021453,-0.00243,-0.020093
1695,0.02429,-0.077157,-0.06632
1696,0.020294,-0.151395,-0.081924
1697,-0.091497,-0.396734,-0.042516
1698,-0.150391,-0.46153,-0.036059
