,userAcceleration.x,userAcceleration.y,userAcceleration.z
0,0.410978,-0.988371,-0.349418
1,0.370364,-0.707505,-0.59572
2,-0.101041,-0.745473,-0.92991
3,-0.154716,-0.781534,-0.930534
4,-0.092918,-1.048882,-0.176258
5,0.16397,-0.947788,0.064572
6,0.138237,-0.829334,0.108693
7,-0.310564,0.309658,0.228354
8,-0.152114,1.040107,0.161811
9,0.022429,1.285359,0.22621
10,-0.099657,1.434722,0.542474
11,-0.457968,2.476157,-0.241435
12,-0.484709,2.869775,-0.204356
13,0.342933,1.988345,-0.125395
14,0.243715,0.348588,-0.160967
15,0.067227,-0.28296,0.191222
16,-0.31571,-1.078574,0.688603
17,0.559798,-1.425661,1.25433
18,0.554661,-1.438675,1.240879
19,0.554772,-1.561438,1.069555
20,0.371694,-1.066856,0.619416
21,0.324595,-1.11385,0.564595
22,0.089055,0.035575,-0.42612
23,-0.298563,0.17257,-0.599552
24,-0.141242,-0.206668,-0.554763
25,0.969123,-0.248831,2.780761
26,0.703219,0.728777,2.67893
27,-0.712382,0.255743,0.4612
28,0.43754,1.296664,0.557272
29,0.185225,2.123786,0.753778
30,-0.30591,2.006088,0.499932
31,-0.070925,1.38441,-0.185886
32,0.211148,1.744585,-0.188596
33,0.160067,1.558585,-0.279651
34,-0.718782,0.332508,-0.943733
35,-0.251787,-0.824043,-0.451729
36,0.048427,-0.908072,-0.318459
37,0.72323,-0.671619,-0.320988
38,0.418055,-0.371322,-0.588445
39,-0.105385,-0.660763,-0.912023
40,-0.331669,-0.912119,-0.614344
41,-0.157234,-1.064135,-0.093338
42,0.023608,-0.996123,0.003937
43,-0.162798,-0.424595,0.015699
44,-0.322548,0.558046,0.292975
45,-0.164938,1.088555,0.380317
46,-0.279046,0.901689,0.548919
47,-0.427116,1.645682,0.319457
48,-0.48621,2.153071,0.217334
49,-0.335041,2.489155,0.44266
50,0.568606,1.861681,0.142037
51,0.635999,1.395879,0.075147
52,-0.062266,-0.710794,0.384044
53,-0.237395,-1.41576,0.519621
54,0.019521,-1.470116,0.702129
55,0.612033,-1.561678,1.257068
56,0.508455,-1.615223,1.072866
57,0.331263,-1.353549,0.850756
58,0.25152,-0.6458,0.112198
59,0.279288,0.17607,-0.555458
60,0.072611,0.263508,-0.44836
61,-0.011306,-0.490637,-0.199678
62,0.666806,-1.009136,1.324236
63,0.694976,-0.978387,1.362808
64,-2.111788,2.062332,-1.071623
65,0.885745,0.336823,-0.112898
66,0.840892,0.291027,-0.16378
67,0.306997,1.903488,0.686035
68,-0.228027,1.466366,0.177334
69,-0.11634,1.678033,-0.311132
70,-0.027717,1.568603,-0.303662
71,-0.968998,0.44281,-0.571129
72,-0.99707,0.446741,-0.648364
73,-0.44933,-0.896124,-0.574484
74,0.608471,-0.996327,-0.327425
75,0.606846,-0.990736,-0.357823
76,-0.032988,-0.686259,-0.694489
77,-0.435948,-0.819985,-0.750158
78,-0.592907,-0.940792,-0.375215
79,-0.04304,-1.095991,-0.034186
80,0.155119,-0.802329,0.117361
81,-0.079681,-0.595565,0.190904
82,-0.265818,0.521442,0.160204
83,0.201508,1.442171,0.250154
84,0.406527,2.025918,0.529129
85,-0.141004,1.549116,0.526274
86,-0.80207,2.546143,0.072068
87,-0.485385,2.723031,0.198713
88,0.351513,1.089839,-0.477203
89,0.072632,0.282311,-0.336544
90,-0.033189,-0.602607,0.23485
91,-0.184014,-1.213311,0.731613
92,0.254018,-1.397943,1.138991
93,0.382211,-1.541371,1.218067
94,0.507433,-1.394728,0.952836
95,0.426332,-0.954114,0.608276
96,0.330295,-0.600622,0.302826
97,0.15067,0.207371,-0.620041
98,0.031689,0.156222,-0.641473
99,0.094223,-0.326919,-0.508629
100,0.750601,-1.136364,0.836112
101,0.139907,-0.30526,2.672686
102,-1.684354,2.513005,-0.442178
103,0.787276,0.412574,-0.269359
104,0.283394,0.885691,0.923445
105,0.106636,1.263965,0.655444
106,-0.016166,1.985119,0.01481
107,0.29333,1.457042,-0.096305
108,0.023915,1.004909,-0.320943
109,-0.980825,0.388703,-0.658623
110,-0.572881,-0.851513,-0.284482
111,-0.549864,-0.846099,-0.330329
112,0.54925,-0.834609,-0.265227
113,0.624614,-0.089012,-0.843634
114,0.607255,-0.084225,-0.863863
115,-0.435012,-0.999502,-0.43744
116,-0.42369,-1.081153,-0.208569
117,-0.101279,-1.004027,-0.129239
118,-0.3411,-0.446914,-0.000875
119,-0.605358,-0.191835,0.028833
120,-0.232597,0.642626,0.228015
121,0.570275,2.399606,0.681433
122,0.346134,1.725555,0.89845
123,-0.340771,1.547455,0.301273
124,-0.635792,2.637614,0.193146
125,-0.025745,2.470169,0.069203
126,0.393337,1.148136,-0.383899
127,0.006115,-0.286025,0.122073
128,-0.096565,-1.123553,0.81699
129,0.007662,-1.221576,0.997447
130,0.554085,-1.48624,1.220985
131,0.573957,-1.356755,1.031434
132,0.400755,-1.170515,0.707243
133,0.33729,-0.906362,0.261081
134,0.353766,-0.64567,0.024388
135,0.063512,0.180865,-0.176581
136,-0.164926,-0.060609,-0.487601
137,0.30385,-0.80641,-0.656644
138,0.471123,-1.486735,1.41218
139,0.354662,-0.118705,2.914196
140,-1.939425,5.015703,0.978667
141,1.280293,-0.525482,-0.340413
142,0.670298,-0.038778,0.474716
143,0.433041,0.897982,0.477891
144,-0.223243,2.209626,0.259187
145,0.203474,1.176411,-0.294371
146,0.07032,0.942571,-0.532173
147,-0.146641,0.871876,-0.602238
148,-0.743631,-0.012752,-0.497073
149,-0.722331,-0.792083,-0.447949
150,-0.49426,-0.969897,-0.287309
151,0.193874,-0.679937,-0.577225
152,0.272588,-0.859351,-0.375708
153,0.154917,-0.872813,-0.569935
154,0.124445,-0.81977,-0.581791
155,-0.088406,-0.888313,-0.091466
156,-0.068142,-0.89504,-0.044727
157,-0.635874,-0.529799,-0.198134
158,0.281211,0.779951,0.039272
159,0.277131,0.779647,0.102044
160,1.049364,2.092344,0.9698
161,-0.253374,1.817128,0.358362
162,-0.523749,2.249745,-0.144435
163,-0.459648,2.585748,0.507561
164,0.227652,0.742472,-0.724311
165,-0.163863,-0.059004,-0.104051
166,-0.367801,-0.868104,0.599926
167,-0.006678,-0.944802,1.011425
168,0.303911,-1.203086,1.219721
169,0.569246,-1.457314,1.186161
170,0.438095,-1.480586,0.83891
171,0.285459,-1.419054,0.658043
172,0.407372,-0.457808,0.012386
173,0.041207,0.483051,-0.937934
174,-0.281511,0.527786,-0.800571
175,0.362823,-0.843605,-0.3561
176,1.098444,-1.186244,1.215879
177,1.448834,-0.399542,3.75951
178,-1.174227,1.480087,1.671483
179,0.844909,-0.077597,-0.032428
180,0.818236,0.612468,1.030118
181,-0.098888,1.562846,0.570129
182,-0.313235,1.27613,-0.194956
183,-0.003429,1.208427,-0.23456
184,0.273398,1.386127,-0.213989
185,-0.131692,1.021536,-0.264142
186,-0.358476,0.621089,-0.437717
187,-0.730739,-0.592482,-0.786677
188,-0.254614,-1.045876,-0.610847
189,0.109469,-1.071006,-0.586614
190,0.580978,-0.621231,-0.362015
191,0.074839,-0.676003,-0.869375
192,-0.032383,-0.783436,-1.094673
193,-0.067416,-1.173347,-0.17433
194,0.089545,-1.15456,0.012073
195,0.106877,-0.955498,-0.05176
196,-0.014481,-0.373261,0.232303
197,-0.043031,0.578632,0.133476
198,-0.001107,1.304059,0.251667
199,-0.310626,1.417939,0.585291
200,-0.818318,1.847978,0.016389
201,-1.167879,2.314505,0.079287
202,0.186313,2.529968,0.068617
203,0.456118,0.181347,-0.677137
204,0.201891,-0.273678,-0.032704
205,-0.077767,-0.755031,0.598886
206,-0.133692,-1.245603,1.114272
207,-0.128151,-1.247551,1.108892
208,0.800203,-1.539613,1.079651
209,0.347303,-1.175721,0.884366
210,0.12789,-0.881465,0.602888
211,0.078551,-0.465082,0.055974
212,0.034687,0.055517,-0.117691
213,0.090001,0.049228,-0.303881
214,0.25694,-0.690894,-0.491732
215,0.83619,-1.482375,1.768577
216,0.795348,-0.948914,3.002964
217,-2.237858,4.839133,-3.385236
218,1.441773,-0.766879,0.441009
219,0.584705,-0.375107,0.430411
220,-0.42199,2.092221,0.420297
221,-0.004209,1.680498,0.027705
222,-0.066328,1.637005,-0.079611
223,-0.103954,1.182042,-0.347806
224,-0.697786,0.818082,-0.688049
225,-0.791772,0.285629,-0.747694
226,-0.429212,-0.906268,-0.400101
227,0.277143,-0.898244,-0.38943
228,0.513204,-0.788325,-0.407083
229,0.411369,-0.514554,-0.838166
230,-0.142731,-0.77446,-0.858288
231,-0.215956,-0.783132,-0.822587
232,-0.072293,-1.053095,-0.05968
233,-0.141054,-0.82494,-0.166857
234,-0.217392,-0.654048,-0.096344
235,-0.242872,0.473852,0.127247
236,0.199189,1.617416,0.299456
237,0.328039,1.875086,0.566689
238,-0.424753,1.59598,0.344187
239,-1.215829,2.439479,0.255592
240,-1.198611,2.736614,0.318374
241,0.632346,1.723436,-0.197708
242,0.636295,0.435987,-0.208412
243,0.418938,-0.001948,0.213138
244,-0.422169,-1.166592,0.750759
245,0.018322,-1.549045,0.94892
246,0.265362,-1.526147,1.072913
247,0.597834,-1.679338,1.037304
248,0.392976,-1.340026,0.873709
249,0.363486,-1.052778,0.693401
250,-0.295133,0.3778,-0.452972
251,-0.302917,0.378235,-0.44966
252,-0.188059,-0.561918,-0.428291
253,1.154224,-1.852122,1.647625
254,1.087569,-0.168461,2.953686
255,1.01462,-0.197949,2.930748
256,-0.255652,0.925655,3.685515
257,0.232769,-0.461232,0.154821
258,0.184541,-0.50904,0.083646
259,-0.377356,2.881294,0.243903
260,0.25127,1.403329,-0.119769
261,-0.054878,0.987448,-0.480354
262,-0.781164,0.274197,-0.953518
263,-0.582326,-0.715577,-0.782293
264,-0.099785,-1.020585,-0.035417
265,0.369219,-0.898072,-0.121476
266,0.483637,-0.59537,-0.571881
267,0.075744,-0.673656,-1.104036
268,-0.261875,-0.813666,-0.620372
269,-0.199529,-0.911019,-0.163685
270,-0.138009,-0.888742,-0.018386
271,-0.488012,-0.515661,-0.046833
272,-0.834546,-0.616079,-0.29029
273,-0.382317,-0.243481,0.220289
274,1.057663,4.227599,0.884935
275,1.013789,3.644286,0.936419
276,0.310723,2.001879,1.069762
277,-0.722989,1.840396,-0.199089
278,-0.145462,1.987475,-0.293773
279,-0.094265,2.057073,-0.18963
280,0.178668,-0.042489,0.201224
281,0.074824,-0.902186,1.016663
282,0.09169,-1.26899,1.097008
283,0.462227,-1.516907,1.35265
284,0.502349,-1.474198,1.104963
285,0.393667,-1.372089,0.894801
286,0.290512,-0.891457,0.378616
287,0.146358,-0.065624,-0.707906
288,-0.057804,0.243001,-0.83271
289,-0.170049,-0.472931,-0.474975
290,0.555981,-1.239653,0.151021
291,1.031553,-1.332912,2.778165
292,-2.1478,5.121465,-1.471818
293,0.725876,-0.771978,0.467391
294,0.66678,-1.035688,-0.843148
295,0.275344,2.042414,0.756585
296,-0.216525,2.163788,0.412069
297,0.024711,1.708414,0.150451
298,-0.02749,0.897934,-0.270368
299,-0.877193,0.983109,-0.826455
300,-0.984061,0.643676,-0.95072
301,-0.145825,-0.820745,-0.387365
302,0.292613,-1.006728,-0.149171
303,0.414648,-0.987372,-0.179956
304,0.563352,-0.646904,-0.35768
305,-0.191351,-0.766183,-1.161604
306,-0.204368,-0.765628,-1.160835
307,-0.264911,-1.348008,0.170106
308,-0.236493,-1.234442,-0.165564
309,0.19039,-0.825115,0.108765
310,-0.102486,-0.424397,0.094404
311,-0.162515,0.847807,0.196776
312,0.195834,2.466387,0.459391
313,-0.129414,1.574664,0.858627
314,-1.163164,1.868871,-0.18124
315,-1.437119,2.198117,0.061852
316,0.387504,2.666562,-0.220688
317,0.543236,1.039132,-0.948497
318,-0.050212,-0.502388,0.029305
319,-0.393576,-0.701104,0.836195
320,-0.080936,-1.208503,1.226934
321,0.148287,-1.464102,1.221254
322,0.532344,-1.45552,1.066369
323,0.477742,-1.211256,0.773139
324,0.476608,-1.090812,0.602609
325,0.134963,-0.110317,-0.050366
326,-0.053828,0.166553,-0.395282
327,-0.165947,0.045146,-0.434082
328,0.296555,-0.341894,-0.216879
329,0.585643,1.526047,2.198573
330,-0.186755,1.169872,2.137802
331,0.264744,-0.478767,-0.725751
332,1.064908,2.130558,1.549566
333,0.130049,2.724386,0.930289
334,-0.413786,0.83256,0.376277
335,-0.192418,1.289389,-0.150724
336,-0.168532,1.720918,-0.377701
337,-0.456165,1.28998,-0.432493
338,-0.746164,0.522172,-0.748663
339,-0.593611,0.091942,-0.715811
340,0.101188,-1.059317,-0.72411
341,0.612394,-0.872154,-0.800582
342,0.717056,-0.755141,-0.697363
343,0.047293,-0.782989,-0.817592
344,-0.562816,-0.839457,-0.62038
345,-0.634032,-0.995167,-0.233145
346,-0.297474,-1.180972,-0.08716
347,0.072924,-0.777539,0.021709
348,-0.008864,-0.69004,0.055529
349,-0.369206,-0.268444,0.084947
350,0.309497,0.823659,0.347706
351,0.629335,1.921,0.628649
352,-0.101033,1.450703,0.787926
353,-0.893203,1.928341,-0.20706
354,-1.488303,2.549796,0.196863
355,0.447129,2.161834,-0.150707
356,0.043311,-0.222245,-0.152486
357,0.134247,-0.54444,0.30155
358,-0.196333,-0.929801,0.770821
359,-0.0458,-1.468192,1.167861
360,0.085708,-1.491865,1.222212
361,0.609422,-1.5714,1.280369
362,0.51312,-1.080734,0.852031
363,0.396841,-0.756575,0.527143
364,0.025362,-0.128193,-0.216673
365,-0.07599,0.373761,-0.543808
366,-0.105348,0.006343,-0.411062
367,0.392884,-0.894823,0.030997
368,0.980093,-1.456876,2.70529
369,0.487884,0.020061,2.778926
370,-2.386014,4.002667,-1.964839
371,0.865331,-0.4668,-0.425893
372,0.383663,0.446673,0.655108
373,-0.40129,2.013407,0.311373
374,0.077988,1.681214,-0.018388
375,0.25,1.558578,0.001887
376,-0.110062,1.183543,-0.168708
377,-0.749339,0.520296,-0.44053
378,-0.913249,0.035832,-0.559946
379,-0.491942,-0.977207,-0.507581
380,0.335862,-0.856872,-0.393511
381,0.534983,-0.706007,-0.39836
382,0.358913,-0.687785,-0.359924
383,-0.371525,-0.840469,-0.933763
384,-0.33207,-0.801725,-0.980157
385,-0.297601,-1.147434,-0.141077
386,0.188109,-1.000817,-0.013307
387,0.338453,-0.793031,0.034797
388,-0.004982,0.042666,0.284632
389,0.2382,1.559572,0.298461
390,0.345584,2.056216,0.529146
391,-0.677458,1.166431,0.135595
392,-1.368696,2.567481,0.077672
393,-1.358057,2.5937,0.164351
394,0.205469,1.807982,0.047966
395,0.793505,0.889165,-0.524025
396,0.253585,-0.119471,0.264479
397,-0.122651,-0.560741,0.697182
398,-0.330693,-1.04118,1.033082
399,-0.198233,-1.324066,1.11255
400,0.40408,-1.510973,0.976821
401,0.583651,-1.357833,0.863252
402,0.432296,-1.144172,0.672159
403,0.305464,-0.184369,-0.442933
404,0.062815,0.046533,-0.361373
405,-0.076281,0.019835,-0.42252
406,0.233748,-0.930754,0.157852
407,0.563347,-0.68926,3.187815
408,-0.445289,1.198765,1.373396
409,0.550017,-0.152923,1.546273
410,0.906686,-0.167024,-0.874253
411,0.551527,1.41381,0.844536
412,-0.018575,1.765344,0.301384
413,-0.079005,1.381157,-0.194781
414,0.226175,1.359101,-0.231569
415,-0.021235,1.338624,-0.147879
416,-0.925272,0.313984,-0.420976
417,-1.229242,-0.140499,-0.547564
418,-0.251117,-0.979689,-0.363676
419,0.476169,-0.898487,-0.251675
420,0.622449,-0.711565,-0.355251
421,0.487982,-0.140789,-0.853477
422,-0.471238,-0.951107,-0.629636
423,-0.546069,-1.019558,-0.251705
424,-0.514345,-1.164862,-0.0868
425,-0.013604,-0.728858,0.238421
426,-0.262652,-0.486849,0.244344
427,-0.546883,-0.098798,0.074791
428,0.458042,1.847576,0.412453
429,0.825763,2.270596,0.820074
430,0.111813,1.651364,0.632911
431,-0.62485,2.075634,-0.079252
432,-0.892866,2.168417,0.343297
433,0.224562,1.749657,-0.313674
434,0.024737,-0.093896,-0.119195
435,0.300816,-0.346871,0.092124
436,-0.167711,-0.932212,0.818343
437,-0.085706,-1.312747,1.059676
438,0.061827,-1.458884,1.056231
439,0.404789,-1.447124,0.82386
440,0.560316,-1.192898,0.691655
441,0.473748,-0.867521,0.472739
442,0.088311,0.340387,-0.533488
443,-0.112021,0.294039,-0.563885
444,-0.063552,-0.148086,-0.383969
445,0.436763,-1.490072,0.515787
446,0.827458,-0.66537,3.161408
447,-0.143135,1.370904,1.399817
448,0.582782,-0.203385,2.281203
449,0.697962,-0.295719,0.081959
450,0.415676,0.906886,0.85664
451,-0.396308,1.699038,0.306292
452,-0.009828,0.860291,0.178274
453,0.01313,0.856427,-0.079135
454,-0.345527,1.463863,-0.47735
455,-0.379979,1.103943,-0.56186
456,-0.390244,0.580375,-0.679394
457,-0.332089,-0.796275,-0.333741
458,0.042202,-1.068447,-0.322769
459,0.327108,-0.96364,-0.463827
460,0.653684,-0.412217,-0.608713
461,-0.117088,-0.811368,-0.82421
462,-0.404414,-0.831377,-0.831032
463,-0.670213,-0.904076,-0.038537
464,-0.320269,-0.887061,-0.009028
465,-0.337496,-0.749826,0.100098
466,-0.614138,-0.2434,-0.066713
467,0.618384,1.943971,0.626312
468,0.629586,1.950413,0.702607
469,0.022417,1.356767,0.781489
470,-0.750668,1.855532,-0.065136
471,-1.087034,1.936776,0.411202
472,0.072254,1.867161,-0.084454
473,0.048749,0.126525,0.025055
474,-0.052094,-0.422028,0.249395
475,-0.048155,-1.219446,0.676188
476,0.441822,-1.458437,1.157936
477,0.327004,-1.531794,1.171752
478,0.290566,-1.642386,1.05664
479,0.309027,-1.071558,0.780976
480,0.228728,-0.550597,0.208202
481,0.032637,0.057587,-0.473678
482,0.064512,0.239517,-0.387986
483,-0.080233,-0.036783,-0.480987
484,0.463286,-0.85805,-0.387745
485,0.310897,1.147774,2.266428
486,-1.698608,2.374714,-0.456666
487,0.963828,-0.110833,-0.775446
488,0.922391,1.23941,1.144047
489,0.428826,1.743752,0.713332
490,-0.569124,1.449736,-0.20303
491,0.109009,1.185324,-0.103949
492,0.069037,1.074031,-0.242546
493,-0.35654,0.76466,-0.204894
494,-0.585972,-0.037644,-0.36711
495,-0.603043,-0.311595,-0.551872
496,-0.284337,-0.821569,-0.40004
497,-0.102896,-0.843973,-0.42346
498,0.369501,-0.513438,-0.486173
499,-0.165396,-0.856291,-0.655793
500,-0.406476,-0.882553,-0.58859
501,-0.409319,-0.92343,-0.292308
502,-0.26443,-0.890124,-0.047042
503,-0.377344,-0.454919,0.062465
504,-0.184468,0.703054,0.243729
505,0.465355,1.63784,0.558554
506,0.624584,1.613228,0.930563
507,-0.2034,1.249237,0.513328
508,-1.05182,1.90259,0.370601
509,-0.199136,2.152465,0.259436
510,0.446461,1.959167,-0.011217
511,0.18025,0.339809,-0.127575
512,-0.40376,-0.74489,0.473921
513,-0.42429,-0.828919,0.525105
514,0.170773,-1.126796,0.862491
515,0.668186,-1.452301,1.280491
516,0.452133,-1.582182,1.17854
517,0.326233,-1.482158,0.77331
518,0.383209,-0.431871,0.18546
519,0.272653,0.000772,-0.364856
520,-0.201029,0.491336,-0.634068
521,0.167433,-0.992881,-0.322362
522,0.425265,-1.441718,0.178011
523,1.254439,-1.420522,3.380733
524,-1.271738,3.525472,1.566027
525,0.994371,0.08065,2.366557
526,0.435931,0.196358,0.570994
527,0.140646,1.934187,0.587072
528,-0.166632,2.152592,0.367837
529,0.279169,1.268667,0.007468
530,-0.225935,0.997951,-0.375368
531,-0.533918,0.981499,-0.476955
532,-0.791959,-0.208849,-0.663778
533,-0.55861,-0.922254,-0.532859
534,-0.267063,-0.990631,-0.27175
535,0.06887,-0.739126,-0.423333
536,0.322277,-0.741529,-0.648839
537,0.252756,-0.890018,-0.532828
538,-0.27087,-0.899668,-0.599536
539,-0.179664,-0.93969,-0.136623
540,-0.208434,-1.00062,-0.020652
541,-0.242818,-0.13049,0.180772
542,0.115885,1.082489,0.306905
543,0.26918,1.400658,0.4345
544,-0.294435,1.252026,0.41933
545,-0.560712,1.769047,-0.010437
546,-0.803355,2.18357,0.102963
547,-0.068681,2.317911,0.483664
548,0.370162,2.122515,0.237897
549,0.422413,1.100334,-0.329725
550,-0.180663,-0.585063,0.433162
551,-0.329237,-1.105128,0.758749
552,-0.313956,-1.101537,0.758375
553,0.366121,-1.590103,1.140299
554,0.369618,-1.656882,1.028534
555,0.377048,-1.443947,0.817064
556,0.478659,-0.165184,0.124819
557,0.214204,0.241569,-0.494981
558,-0.41711,0.562773,-0.65933
559,-0.081734,-0.966682,-0.53269
560,1.197452,-1.762572,2.273112
561,1.756067,-0.831658,3.896631
562,-1.071403,2.330306,1.881302
563,1.108483,0.092852,0.253491
564,0.568806,0.4634,1.033263
565,0.078871,1.235146,0.637124
566,-0.389216,1.636848,0.055523
567,-0.285026,1.687352,-0.208859
568,0.11398,1.091552,-0.294424
569,-0.525141,0.707123,-0.186663
570,-0.642423,0.070614,-0.401272
571,-0.583936,-0.807556,-0.591461
572,0.02724,-1.004117,-0.368902
573,0.325702,-0.930216,-0.386062
574,0.392456,-0.697065,-0.389077
575,-0.211851,-0.820482,-0.874189
576,-0.368761,-0.811739,-0.702861
577,-0.283506,-1.081231,-0.010761
578,-0.206332,-0.884313,0.007663
579,-0.320352,-0.69846,0.011689
580,-0.664889,-0.279638,-0.007508
581,0.108805,1.285096,0.116617
582,0.516094,2.171841,0.390335
583,0.161188,1.575621,0.940818
584,-0.519017,1.803363,-0.024871
585,-0.867641,1.884764,0.159213
586,0.072176,1.678431,-0.086514
587,0.438264,0.570761,-0.294368
588,0.074559,0.063032,0.085597
589,-0.323648,-0.879735,0.670709
590,-0.090686,-0.840814,1.064308
591,-0.001615,-0.975419,1.186766
592,0.20683,-1.493911,1.088699
593,0.355352,-1.370457,0.731129
594,0.420616,-1.06541,0.624929
595,0.465309,-0.162251,0.093224
596,-0.42219,0.646852,-1.000721
597,-0.411763,0.670643,-0.955348
598,0.491396,-1.306305,-0.570028
599,0.418178,1.167111,2.349114
600,0.366281,1.158174,2.35083
601,0.54902,-0.16639,1.645227
602,0.667742,0.287483,0.760794
603,0.441083,1.482841,0.686445
604,-0.221428,1.967405,0.494251
605,-0.537821,1.524274,-0.036618
606,0.188141,0.964843,-0.325121
607,-0.084846,1.09168,-0.442382
608,-0.318058,0.392522,-0.045198
609,-0.545271,-0.167977,-0.454302
610,-0.738363,-0.562989,-0.31647
611,0.246392,-1.008846,-0.163614
612,0.463189,-0.991937,-0.228464
613,0.075928,-0.527262,-0.792096
614,-0.417173,-0.761025,-0.747207
615,-0.482203,-0.993815,-0.41633
616,-0.253337,-1.033826,-0.045591
617,-0.196567,-0.795992,0.123129
618,-0.306821,-0.551268,0.20981
619,-0.032106,0.946331,0.143132
620,0.512459,2.151998,0.442526
621,0.448195,1.830379,0.581007
622,-0.497307,1.60045,0.176115
623,-1.010955,2.130552,0.303797
624,-0.577421,2.276149,0.262381
625,0.624994,1.187585,-0.594943
626,0.157599,0.228264,0.063476
627,0.003626,-0.110594,0.34754
628,-0.227075,-1.113536,0.80834
629,0.177059,-1.26751,1.089851
630,0.475018,-1.386423,1.161701
631,0.532421,-1.41573,1.021955
632,0.435726,-1.111217,0.821853
633,0.310695,-0.873304,0.500251
634,0.07585,-0.037696,-0.475118
635,-0.113708,0.321515,-0.258259
636,-0.16956,-0.309014,-0.580613
637,0.447065,-1.60539,-0.024289
638,1.402513,-1.26196,3.21525
639,-1.431612,5.107194,-2.411352
640,0.599299,0.272364,1.922549
641,0.037919,-0.43147,0.235896
642,0.177508,0.785463,0.546118
643,-0.09744,2.295349,0.377942
644,-0.019243,1.840337,-0.250954
645,0.172866,1.30815,-0.394052
646,-0.032245,1.000019,-0.267124
647,-0.219194,1.128713,-0.104403
648,-0.875744,0.53944,-0.238505
649,-0.954687,-0.353151,-0.897322
650,0.00635,-1.150819,-0.457655
651,0.363372,-1.068043,-0.306906
652,0.713745,-0.86265,-0.175609
653,-0.27815,-0.851816,-0.457008
654,-0.462766,-0.954116,-0.546727
655,-0.448877,-0.955869,-0.19548
656,-0.458794,-0.669246,0.043953
657,-0.465681,-0.424657,0.127605
658,-0.244509,0.165235,0.068726
659,0.795311,1.656579,0.842835
660,0.64078,1.329546,0.997838
661,-0.637257,1.66727,0.090812
662,-0.647637,1.76361,0.192887
663,-0.82054,2.286009,0.528135
664,-0.109279,2.108881,0.331191
665,0.566492,1.39489,-0.109876
666,-0.050732,-0.465428,0.293968
667,-0.227102,-1.01477,0.968832
668,0.031047,-1.243053,1.152275
669,0.159748,-1.394434,1.179232
670,0.348155,-1.445583,1.000298
671,0.127016,-1.320257,0.69776
672,0.112575,-1.101812,0.520045
673,0.266029,0.16551,-0.942108
674,-0.015392,0.289979,-0.57522
675,-0.185597,-0.038415,-0.360411
676,0.44084,-1.683253,0.703114
677,1.142643,-1.448458,2.933846
678,-0.115929,0.358008,0.737284
679,0.018313,1.710862,1.311446
680,0.484356,-0.229421,0.281793
681,0.296949,-0.055853,0.590347
682,-0.04825,2.055733,0.383327
683,-0.169538,2.213906,0.166158
684,0.08301,0.898875,-0.14948
685,-0.13865,0.663816,-0.192944
686,-0.498389,0.224086,-0.123564
687,-0.515729,0.216411,-0.189794
688,-0.232988,-0.910968,-0.282822
689,-0.011666,-0.851096,-0.176023
690,0.115494,-0.738569,-0.151621
691,0.243446,-0.683391,-0.322394
692,-0.009001,-0.887664,-0.557705
693,-0.05876,-0.990854,-0.526298
694,-0.0938,-1.079572,-0.080524
695,-0.379726,-0.731495,-0.045938
696,-0.498141,-0.579414,-0.045804
697,-0.163493,0.75587,0.265465
698,0.953243,2.818106,1.498891
699,0.94586,2.826584,1.566713
700,-0.785956,1.5845,0.095317
701,-1.300628,1.217229,0.539378
702,-1.023148,1.166575,0.549306
703,0.351078,0.987279,0.326729
704,0.588766,0.798426,0.278951
705,0.303995,0.45031,0.369247
706,-0.088968,-0.507582,0.736685
707,0.040493,-0.912197,0.727397
708,0.043237,-1.161306,0.773156
709,0.166445,-1.076364,0.515195
710,0.217772,-0.911038,0.388883
711,0.173718,-0.869663,0.273538
712,-0.009899,-0.536335,-0.004948
713,-0.259796,-0.009755,-0.205448
714,-0.431029,0.505596,-0.440234
715,-0.108769,0.506834,-0.199577
716,0.140882,-0.461363,0.181934
717,0.223471,-0.797695,0.195771
718,0.034443,-0.894449,0.815977
719,0.065601,1.463588,0.959565
720,-1.314843,3.786566,-0.539471
721,0.601785,-0.50643,0.61341
722,0.433774,0.298313,0.263197
723,0.532424,0.754535,0.762029
724,0.377713,1.735369,0.489509
725,0.298876,0.902867,0.44606
726,0.215231,0.405322,0.3751
727,0.048492,-0.022119,0.282394
728,-0.042104,0.136009,0.20337
729,-0.032862,0.091154,0.21898
730,0.021204,-0.322835,0.153387
731,-0.056335,-0.552875,0.080257
732,-0.052342,-0.5568,0.068897
733,0.011376,-0.365963,0.033197
734,0.07315,-0.394683,-0.138813
735,0.02866,-0.385553,-0.244496
736,0.041387,-0.244278,-0.447008
737,0.268525,0.095459,-0.248185
738,0.334486,0.238036,-0.311651
739,0.390707,0.166369,-0.234101
740,-0.107031,0.095342,0.176598
741,-0.401645,0.19971,-0.000261
742,-0.7542,0.316692,-0.371852
743,-0.249133,0.237321,-0.031193
744,0.009584,0.317421,0.09036
745,0.478829,0.316149,0.409061
746,0.692862,0.492244,0.221366
747,0.524458,0.57586,0.293487
748,0.561863,0.817314,0.632743
749,0.30171,0.706208,0.748624
750,0.178719,0.71706,0.920929
751,0.057258,0.63781,0.804362
752,0.15183,0.480559,0.682102
753,0.288903,0.511233,0.677544
754,0.350888,0.123386,0.419648
755,0.334046,0.04265,0.418207
756,0.270615,-0.182062,0.537697
757,0.28355,-0.230568,0.40945
758,0.263234,-0.282445,0.382461
759,0.227723,-0.322251,0.404914
760,0.327568,-0.335268,0.425136
761,0.392592,-0.294411,0.390337
762,0.385417,-0.19297,0.323903
763,0.32799,-0.152876,0.250488
764,0.271291,-0.130659,0.181873
765,0.1914,-0.138265,-0.009329
766,0.067287,0.005934,-0.483619
767,0.028743,0.15154,-0.679386
768,0.028269,0.358562,-0.683256
769,0.224,0.217618,-0.171631
770,0.419938,0.036564,-0.358705
771,0.565891,-0.021667,-0.347062
772,0.376534,1.61039,-0.450928
773,0.44447,0.626054,1.461288
774,0.472006,-1.062163,2.564183
775,0.674565,0.754584,-0.04835
776,1.13781,1.651967,0.930468
777,1.150707,1.657773,0.917467
778,0.075289,0.806563,0.133497
779,0.47307,0.367367,-0.25249
780,0.514808,0.271495,-0.146235
781,0.425279,0.140423,0.092669
782,0.271036,-0.031061,0.163616
783,0.208391,-0.129192,0.044488
784,0.107545,-0.213459,-0.048023
785,0.205799,-0.280606,-0.080844
786,0.304501,-0.293584,-0.094162
787,0.363937,-0.166662,-0.075372
788,0.279828,-0.082001,-0.212201
789,0.386983,-0.118486,-0.269758
790,0.408018,-0.046822,-0.214341
791,0.400287,0.138922,-0.269869
792,0.440409,0.230765,-0.321812
793,0.529225,0.430775,-0.299813
794,0.380945,0.48929,-0.431429
795,0.381188,0.496825,-0.46984
796,0.387665,0.57119,-0.230957
797,0.400845,0.640083,-0.121897
798,0.604355,0.657666,0.091463
799,0.373981,0.313594,-0.570848
800,0.277325,0.353161,-0.53717
801,0.240057,0.345632,-0.41508
802,0.762252,0.78077,0.146628
803,0.603708,0.58004,0.501999
804,0.225859,0.589152,0.756264
805,0.418129,0.367398,0.101869
806,0.356732,0.209486,0.183763
807,0.337446,0.092646,0.230925
808,0.318852,-0.498714,0.091598
809,0.298833,-0.848467,0.090533
810,0.377062,-0.759406,0.119739
811,0.277661,-0.227629,-0.08733
812,-0.145499,-0.001167,-0.024989
813,-0.14117,0.130788,-0.079924
814,-0.052072,0.120733,-0.158504
815,0.080875,-0.01417,-0.32015
816,0.129431,-0.091328,-0.355703
817,0.143301,-0.165274,-0.486233
818,-0.062166,-0.148324,-0.438518
819,-0.136574,-0.161452,-0.475758
820,-0.006065,-0.238193,-0.549036
821,0.075164,-0.320484,-0.453625
822,0.13092,-0.369011,-0.402779
823,0.413973,-0.531431,-0.224623
824,0.503987,-0.744927,-0.023651
825,0.425804,-1.066462,0.339504
826,0.715434,-0.572503,0.397249
827,-0.172106,0.653046,-0.42131
828,-0.086909,0.0356,0.194886
829,0.078377,0.434678,0.109965
830,0.25343,0.968745,0.21925
831,0.295594,1.080428,0.209933
832,-0.189211,0.744554,-0.211728
833,0.019855,1.153653,-0.543834
834,-0.007975,1.157915,-0.62733
835,0.372059,1.570398,-0.793474
836,0.377001,1.133369,-0.609486
837,0.063657,0.277145,-1.032367
838,-0.005758,-0.543832,-1.033632
839,0.217894,-0.691907,-0.958222
840,0.565348,-0.581751,-0.883158
841,0.568455,-0.334205,-0.740357
842,0.128317,-0.674611,-1.386357
843,0.067482,-0.744215,-1.245981
844,-0.13022,-0.916107,-0.35962
845,0.097738,-0.913859,-0.387139
846,0.077061,-0.719,-0.483636
847,0.056286,-0.052158,-0.243857
848,0.379914,1.270898,-0.233328
849,0.392963,1.456753,-0.072768
850,-0.130224,1.140583,-0.057757
851,-0.323545,2.212426,0.170873
852,-0.304224,2.693558,-0.071119
853,0.37592,1.784248,-0.891536
854,0.222684,0.809118,-0.700132
855,0.123528,0.353318,-0.578622
856,-0.01659,-0.743277,0.11457
857,-0.120141,-1.19149,0.457517
858,0.121991,-1.377821,0.534226
859,0.406926,-1.64757,0.612765
860,0.416298,-1.557877,0.509293
861,0.408893,-1.483637,0.385898
862,0.376433,-0.775206,-0.055893
863,-0.029864,-0.06169,-0.896961
864,-0.117354,-0.230354,-1.00318
865,0.255858,-0.846814,-0.527269
866,1.097585,-1.684427,1.684559
867,1.538435,-1.140172,2.399541
868,-0.949732,2.386848,0.784547
869,0.891007,-0.156904,-0.634182
870,0.476987,0.146293,0.416427
871,-0.788947,1.835891,-0.258626
872,-0.233563,1.669189,-0.603565
873,0.241221,1.628234,-0.969356
874,0.343808,1.636384,-0.813516
875,-0.363571,0.151772,-0.893081
876,-0.470173,-0.476284,-0.898472
877,-0.247138,-1.074502,-1.007597
878,0.575627,-0.796345,-0.536771
879,0.725778,-0.622929,-0.506757
880,0.671379,-0.109806,-1.17046
881,-0.03635,-0.827767,-1.278621
882,-0.205872,-0.899448,-0.879328
883,-0.149645,-1.049838,-0.163874
884,0.271629,-0.696037,-0.332967
885,0.093565,-0.36026,-0.388176
886,-0.345136,-0.551271,-0.665972
887,0.78399,1.473325,0.126804
888,1.108277,2.950913,0.431077
889,0.560514,2.198777,0.648574
890,-0.705343,1.834815,-0.445557
891,-0.723261,2.338217,-0.655689
892,0.019597,2.300706,-0.424201
893,0.412997,0.548767,-0.353179
894,0.452991,0.046033,-0.088671
895,-0.097592,-1.473241,0.585388
896,0.276529,-1.608877,0.81485
897,0.339982,-1.730396,0.906097
898,0.435554,-1.632225,0.723774
899,0.378305,-1.410181,0.266461
900,0.346068,-1.256813,0.076072
901,0.268734,0.063611,-0.996407
902,-0.270569,0.283698,-1.095387
903,-0.302768,-0.055902,-0.971954
904,0.687759,-1.515107,-0.593406
905,1.944585,-1.543008,3.588736
906,0.961653,0.935897,1.481929
907,0.835528,0.371107,1.459994
908,0.704695,0.113131,0.575955
909,0.484896,0.983982,0.782127
910,-0.795512,1.796213,-0.252456
911,-0.078231,1.354604,-0.912681
912,0.179617,1.275025,-1.306489
913,0.367565,1.45371,-1.041501
914,0.116944,0.14485,-0.764307
915,-0.125958,-0.504483,-0.646284
916,-0.352865,-1.14098,-0.76164
917,0.311831,-0.720416,-0.667595
918,0.240541,-0.560652,-0.695979
919,-0.039267,-0.366449,-1.449749
920,-0.284702,-0.853681,-0.733543
921,-0.027815,-0.977497,-0.380108
922,0.337696,-0.83258,-0.391657
923,-0.0642,-0.128063,-0.240674
924,-0.404846,0.335716,-0.229243
925,-0.331449,1.30259,0.091368
926,0.289612,1.791228,0.580704
927,-0.171947,1.454273,0.151618
928,-0.441856,2.357155,0.123168
929,-0.168488,2.400189,0.044228
930,0.991206,2.133646,-0.477271
931,0.725368,0.922268,-0.272983
932,-0.114182,-0.991947,0.316873
933,-0.297921,-1.563916,0.374387
934,-0.053219,-1.829238,0.5301
935,0.7272,-1.78763,0.715011
936,0.574916,-1.80864,0.615519
937,0.207995,-1.513807,0.357275
938,0.10239,-0.331226,-0.691993
939,0.017334,-0.061559,-0.681116
940,-0.32295,-0.227018,-0.721609
941,0.246738,-1.045949,-0.850398
942,0.536517,-1.489962,-0.542818
943,0.959512,0.232172,1.793034
944,-1.485524,3.578272,0.471591
945,-0.234992,0.431175,2.733253
946,0.397008,0.679294,0.407693
947,0.107995,1.911147,0.096899
948,-0.158892,1.68741,-0.247948
949,0.246272,1.416374,-0.722984
950,0.072597,1.496034,-1.056289
951,-0.007363,1.479981,-0.977702
952,-0.56006,-0.00447,-0.974106
953,-0.532515,-0.806237,-0.766548
954,-0.291538,-0.9665,-0.603751
955,0.464128,-0.610122,-1.035369
956,0.686259,-0.235182,-0.92221
957,0.494228,-0.626755,-1.098514
958,-0.52009,-0.818833,-0.63621
959,-0.29612,-0.986416,-0.345366
960,-0.185912,-0.929352,-0.3561
961,-0.285308,-0.415769,-0.264492
962,0.033151,0.669198,-0.197501
963,0.050826,0.650363,-0.134275
964,1.006316,2.61393,0.592105
965,0.081142,1.624373,0.767863
966,-0.511418,1.874914,-0.271542
967,-0.489036,2.514806,-0.138643
968,0.630205,1.415684,-1.183734
969,0.340352,0.110866,-0.392741
970,0.071292,-1.037129,0.302324
971,0.070662,-1.554555,0.607311
972,0.367407,-1.605706,0.713164
973,0.324039,-1.759462,0.854477
974,0.344787,-1.675745,0.691363
975,0.323095,-1.304356,0.489334
976,0.317203,-0.458879,-0.314649
977,-0.004232,0.240328,-0.905205
978,-0.287627,0.103274,-0.788969
979,0.388418,-1.221291,-0.571254
980,1.16096,-1.663671,1.651956
981,1.354458,-0.984977,2.982511
982,-1.482458,1.984638,1.074007
983,0.890366,-0.51523,-1.363205
984,0.600677,0.146853,0.085763
985,-0.133288,1.776579,-0.14299
986,0.093635,1.681343,-0.345322
987,0.27637,1.642613,-0.619177
988,-0.142027,1.411371,-0.781245
989,-0.532249,0.634527,-0.867336
990,-0.606391,0.085345,-0.840967
991,-0.402265,-0.981848,-0.808272
992,0.417443,-0.766581,-0.613589
993,0.595028,-0.605757,-0.746987
994,0.365611,-0.309896,-1.267694
995,-0.258503,-0.764694,-1.347271
996,-0.351323,-0.808557,-0.760697
997,-0.189541,-1.061487,-0.302921
998,-0.045548,-0.77959,-0.357386
999,-0.134674,-0.606779,-0.266726
1000,-0.066029,0.926725,-0.038144
1001,0.474142,1.753811,0.140728
1002,0.685913,1.594043,0.488074
1003,-0.47071,1.705561,-0.424276
1004,-0.535798,2.030266,-0.260649
1005,-0.190691,2.166704,-0.276905
1006,0.701935,1.36108,-0.585317
1007,-0.036782,-0.426648,-0.10263
1008,-0.27899,-0.786301,0.212273
1009,-0.49374,-1.333209,0.330643
1010,0.411352,-1.76034,0.675744
1011,0.455628,-1.859421,0.801048
1012,0.345383,-1.496702,0.587006
1013,0.172732,-0.747581,0.031632
1014,0.088941,-0.277959,-0.347259
1015,0.043217,0.216057,-1.057998
1016,0.285138,-0.889402,-0.683702
1017,0.608711,-1.189845,-0.254024
1018,1.132709,-0.950155,2.655605
1019,-1.03288,1.011799,0.850748
1020,0.586743,-0.799235,1.715924
1021,0.374904,-0.02751,-0.138827
1022,-0.059363,2.039863,0.425054
1023,-0.301052,1.80399,-0.071304
1024,0.148773,1.548469,-0.796804
1025,0.097553,1.626835,-0.978745
1026,-0.210272,0.920526,-1.151289
1027,-0.253041,-0.037945,-0.982978
1028,-0.217386,-0.832054,-0.590801
1029,-0.09979,-0.796669,-0.672704
1030,0.432949,-0.526352,-0.696818
1031,0.333929,-0.381822,-0.833054
1032,-0.029447,-0.572415,-1.33639
1033,-0.425442,-0.83362,-0.595298
1034,-0.346125,-0.943901,-0.367312
1035,-0.030595,-0.944031,-0.392487
1036,-0.301998,-0.030613,-0.320433
1037,-0.090576,0.550719,-0.196523
1038,0.315675,1.171779,-0.011636
1039,0.307879,2.23187,0.74684
1040,-0.691453,1.769938,-0.108448
1041,-0.913259,1.617392,0.017568
1042,0.391426,1.91274,-1.142146
1043,0.687531,0.938493,-0.779219
1044,0.204121,-0.046066,-0.091604
1045,-0.163957,-1.146335,0.370517
1046,-0.118625,-1.541565,0.396791
1047,0.243818,-1.638812,0.553594
1048,0.292755,-1.719841,0.816239
1049,0.296823,-1.563,0.536391
1050,0.2416,-1.315966,0.377544
1051,0.102459,0.290496,-1.135266
1052,0.029293,0.319797,-1.216831
1053,-0.063852,-0.403989,-0.867612
1054,0.931413,-1.342102,1.699056
1055,-0.251135,1.996357,0.041058
1056,-1.565915,2.385876,-1.0053
1057,0.935906,-0.79886,0.282511
1058,0.113123,1.204549,0.689999
1059,-0.29005,1.576668,0.4389
1060,-0.483486,1.403678,-0.18033
1061,0.364291,1.429132,-0.432863
1062,0.41125,1.587836,-0.644347
1063,-0.149861,1.220619,-0.903262
1064,-0.280078,-0.538413,-0.84547
1065,-0.383344,-0.847441,-0.816586
1066,-0.229709,-0.859269,-0.652229
1067,0.465866,-0.52203,-0.83632
1068,0.469976,-0.347427,-0.949755
1069,0.138261,-0.567178,-1.187523
1070,-0.159303,-0.870248,-0.724344
1071,-0.226414,-0.949976,-0.432565
1072,-0.098077,-0.87887,-0.280253
1073,-0.260188,-0.297053,-0.27372
1074,-0.293766,0.047671,-0.190751
1075,0.445795,1.857781,0.26342
1076,0.120968,1.675391,0.293509
1077,-0.279738,1.402425,0.111552
1078,-0.783933,1.836115,-0.116387
1079,0.007353,1.800789,-0.346374
1080,0.511322,1.687604,-0.542859
1081,0.671595,0.549872,-0.154858
1082,-0.025991,-0.404508,0.312993
1083,-0.37626,-0.91149,0.428892
1084,-0.132015,-1.49312,0.482613
1085,0.546829,-1.437808,0.754969
1086,0.601589,-1.545066,0.77615
1087,0.226524,-1.50446,0.269138
1088,0.365232,-0.929861,-0.123847
1089,0.373505,-0.39587,-0.580596
1090,-0.30325,0.004278,-0.906309
1091,0.074316,-0.913189,-0.780172
1092,0.269113,-1.436885,-0.167637
1093,-0.056261,1.450395,-0.047319
1094,-0.459015,1.419568,0.971298
1095,1.019175,-0.34319,-0.371199
1096,0.210059,0.880276,0.469454
1097,-0.255823,1.619735,0.161375
1098,-0.349208,1.683131,-0.157717
1099,0.06585,1.337026,-0.660278
1100,-0.191272,1.177961,-0.796902
1101,-0.474245,0.414375,-0.954864
1102,-0.402223,-0.858049,-0.550995
1103,-0.365801,-0.941364,-0.656924
1104,0.137421,-0.63384,-0.75144
1105,0.580406,-0.498578,-0.822533
1106,0.410627,-0.560065,-0.879135
1107,-0.015493,-0.681659,-1.179148
1108,-0.292787,-0.899531,-0.355322
1109,-0.223427,-0.839328,-0.374064
1110,-0.207902,-0.73412,-0.310363
1111,-0.509936,-0.38154,-0.251918
1112,-0.044972,1.26011,-0.107389
1113,0.434868,1.998642,0.082031
1114,0.623172,2.515616,0.549629
1115,-0.625734,1.671693,-0.59894
1116,-0.536588,1.952524,-0.578676
1117,0.139326,1.637114,-0.795211
1118,0.198366,0.557797,-0.314994
1119,0.123826,0.208116,-0.017861
1120,-0.255392,-1.202305,0.619803
1121,0.071079,-1.484874,0.583895
1122,0.326803,-1.534185,0.636739
1123,0.386607,-1.573156,0.543934
1124,0.323936,-1.410156,0.311133
1125,0.31153,-1.190469,0.15663
1126,0.149057,-0.01428,-0.840752
1127,-0.220828,-0.063972,-0.812119
1128,-0.251018,-0.36415,-0.713268
1129,0.651617,-1.745747,0.839363
1130,0.916686,-0.007195,2.227685
1131,-1.25368,3.532119,-2.793158
1132,1.229442,-0.962207,-0.270174
1133,0.598684,-0.309805,0.151929
1134,0.446928,0.96496,0.412201
1135,-0.039303,1.828892,-0.036451
1136,0.211724,1.152606,-0.496688
1137,-0.004836,1.155988,-0.749884
1138,-0.353382,0.898595,-0.910108
1139,-0.448874,-0.040325,-0.908968
1140,-0.353966,-0.65134,-0.816185
1141,0.075898,-0.698655,-0.555148
1142,0.41734,-0.43302,-0.678659
1143,0.332078,-0.378327,-0.903039
1144,-0.031299,-0.854853,-1.259478
1145,-0.093827,-0.788048,-0.698305
1146,-0.054003,-0.84497,-0.489395
1147,0.037686,-0.740914,-0.358907
1148,0.088092,0.029932,-0.06865
1149,0.167097,1.433504,0.079955
1150,-0.172219,1.370389,0.352777
1151,-0.370558,1.097783,0.287362
1152,-0.552813,1.703349,0.164323
1153,0.053035,1.932569,-0.152165
1154,0.444595,2.089986,-0.243935
1155,0.707958,1.389938,-0.53274
1156,-0.092608,-0.878715,0.361285
1157,-0.200365,-1.750049,0.365953
1158,0.027056,-1.66746,0.449045
1159,0.486063,-1.70929,0.794677
1160,0.269445,-1.743436,0.489711
1161,0.147323,-1.616494,0.378588
1162,0.343627,-0.793107,-0.201223
1163,0.148398,0.180941,-0.798794
1164,-0.098066,0.429259,-0.779907
1165,0.038285,-1.072528,-1.274096
1166,1.170554,-2.461761,1.95012
1167,1.672742,-1.941771,3.208746
1168,-2.032763,5.089,0.3503
1169,1.471741,-0.624608,-0.713263
1170,0.877368,-0.769764,-0.092863
1171,-0.302767,2.004878,0.232159
1172,0.032826,1.946079,-0.143509
1173,0.383268,1.514135,-0.285732
1174,-0.085574,0.96765,-0.829121
1175,-0.442383,0.722897,-0.985614
1176,-0.445394,0.267336,-0.945152
1177,-0.436105,-0.917759,-0.779593
1178,-0.0137,-0.917286,-0.695491
1179,0.324588,-0.627032,-0.827392
1180,0.425352,-0.472593,-0.945483
1181,-0.069395,-0.67782,-1.102725
1182,-0.151588,-0.760957,-0.851695
1183,-0.0671,-0.989043,-0.312306
1184,-0.105098,-0.710661,-0.301755
1185,-0.223957,-0.496553,-0.251869
1186,0.405143,1.644874,-0.104541
1187,0.786718,2.170254,0.2777
1188,0.968264,2.392855,0.477324
1189,-0.334296,1.715057,-0.432527
1190,-0.517735,1.675321,-0.254794
1191,-0.276388,1.949458,-0.410202
1192,0.661137,1.240424,-0.598873
1193,-0.002773,-0.397112,0.347343
1194,-0.052796,-0.977537,0.270702
1195,-0.047031,-1.786832,0.338345
1196,0.594351,-1.553344,0.829998
1197,0.451565,-1.696868,0.782231
1198,0.372357,-1.539475,0.612003
1199,0.179947,-0.581808,-0.30634
1200,0.052396,-0.317504,-0.610905
1201,0.032946,-0.114258,-0.713157
1202,0.089425,-0.97102,-0.708826
1203,0.439074,-1.205836,-0.498809
1204,0.722995,-1.830777,2.461775
1205,-1.279371,4.251328,-2.066609
1206,-0.30386,2.263622,2.168043
1207,0.721732,-0.170567,0.268599
1208,0.188205,1.512661,0.43523
1209,-0.264938,1.987403,0.223442
1210,0.032456,1.186594,-0.349156
1211,0.060035,1.167391,-0.549383
1212,-0.120006,1.312925,-0.753763
1213,-0.620258,0.126197,-0.858732
1214,-0.545496,-0.37791,-1.033363
1215,-0.026829,-0.710212,-0.605818
1216,0.477247,-0.790981,-0.579599
1217,0.606856,-0.499797,-0.802266
1218,-0.083042,-0.480461,-1.476006
1219,-0.15976,-0.593385,-1.295837
1220,-0.169056,-0.896907,-0.510099
1221,0.05904,-0.774766,-0.305878
1222,0.011963,0.700596,-0.026892
1223,0.023089,1.532154,0.055998
1224,0.147559,1.925015,0.244895
1225,-0.293578,1.040462,-0.006716
1226,-0.76946,1.687054,-0.435945
1227,-0.703178,2.098804,-0.280042
1228,1.079078,2.271264,-0.946604
1229,0.929197,1.027531,-0.126455
1230,0.554545,0.254285,0.297679
1231,-0.398737,-1.486988,0.563803
1232,0.202969,-1.569283,0.619378
1233,0.449066,-1.707011,0.743039
1234,0.376957,-1.80843,0.650139
1235,0.323074,-1.421685,0.280501
1236,0.341843,-1.112051,-0.046267
1237,0.07772,-0.031321,-0.822496
1238,-0.415072,0.41119,-0.762986
1239,-0.178051,-0.592652,-0.809423
1240,0.603461,-1.077029,-0.563643
1241,0.963746,1.375729,1.359046
1242,-0.43592,0.80816,1.186197
1243,0.210546,-0.699677,-1.292615
1244,0.617607,2.323495,0.50868
1245,-0.097534,2.244946,0.042931
1246,-0.481835,1.270972,-0.665282
1247,0.184383,1.209884,-0.681128
1248,0.154591,1.386523,-0.509256
1249,-0.522136,0.03409,-0.777957
1250,-0.495578,-0.759507,-0.856787
1251,-0.277882,-0.845325,-0.76248
1252,0.698301,-0.623707,-0.642871
1253,0.665317,-0.307254,-0.85405
1254,0.107178,-0.325917,-1.211475
1255,-0.138229,-0.836782,-1.060322
1256,-0.172595,-1.016111,-0.433527
1257,-0.070225,-1.116128,-0.426357
1258,0.410918,-0.521838,-0.293051
1259,-0.184055,0.05452,-0.181032
1260,-0.062022,0.755458,-0.042672
1261,0.838244,2.201836,0.459164
1262,-0.23382,1.394188,0.029761
1263,-1.121665,1.585186,-0.172715
1264,-0.647284,2.375628,-0.172028
1265,0.027264,2.307747,-0.318885
1266,0.840842,1.323345,-1.019839
1267,0.149676,-0.317563,0.027538
1268,-0.097849,-1.270516,0.452205
1269,-0.249608,-1.355351,0.611487
1270,0.443947,-1.721192,0.921624
1271,0.501525,-1.872131,0.775569
1272,0.443898,-1.695078,0.577411
1273,0.130893,-0.56699,-0.238862
1274,-0.067706,-0.02672,-0.867252
1275,-0.08648,-0.133526,-0.767404
1276,0.348506,-0.90583,-0.572012
1277,1.105835,-1.083551,2.218332
1278,0.100085,0.971714,0.009589
1279,-1.154701,2.222912,2.352926
1280,0.720348,-0.190494,0.287663
1281,0.490966,0.782309,0.616744
1282,-0.30407,2.832819,0.209513
1283,0.201156,1.866033,-0.413353
1284,-0.115895,1.508184,-0.853548
1285,-0.657558,0.48447,-1.388746
1286,-0.07054,-0.906229,-0.628804
1287,0.180809,-0.966232,-0.492546
1288,0.615655,-0.608778,-0.585414
1289,0.569097,-0.310232,-0.991744
1290,0.097128,-0.503471,-1.437882
1291,-0.485446,-0.658217,-1.286663
1292,-0.128793,-0.921996,-0.34172
1293,-0.007586,-0.967824,-0.303126
1294,0.030213,-0.656767,-0.227222
1295,-0.262316,0.978455,0.031396
1296,-0.122803,1.351044,0.125065
1297,-0.014324,1.036502,0.374948
1298,-0.185476,1.221535,0.12097
1299,-0.609461,2.039518,-0.186381
1300,0.408504,2.647525,-0.43893
1301,0.861527,2.184801,-0.588559
1302,0.64858,0.773014,-0.286499
1303,-0.260735,-0.727583,0.259216
1304,-0.482199,-1.30579,0.368584
1305,-0.08004,-1.537868,0.526476
1306,0.540042,-1.731989,1.029138
1307,0.459243,-1.621572,0.742035
1308,0.308549,-1.444602,0.564904
1309,0.133773,-0.298405,-0.511913
1310,0.001489,0.09372,-0.90777
1311,-0.195456,-0.072784,-0.761839
1312,0.430207,-1.27976,-0.384222
1313,1.300351,-1.817566,2.551602
1314,1.312896,-0.624837,2.338555
1315,-0.774159,1.329883,2.705068
1316,0.713163,-1.256851,-1.091451
1317,0.474703,-0.664161,-0.086674
1318,-0.220063,2.062731,0.081344
1319,-0.396416,1.752556,-0.18385
1320,0.110447,1.036325,-0.496403
1321,-0.171299,1.467617,-0.867871
1322,-0.400822,0.379878,-0.82803
1323,-0.414438,-0.199712,-0.857065
1324,-0.161234,-0.840786,-0.729603
1325,0.329332,-0.995026,-0.67122
1326,0.625317,-0.438806,-0.836203
1327,0.207684,-0.343857,-1.0042
1328,-0.110527,-0.771287,-1.336037
1329,-0.409583,-0.958824,-0.514768
1330,-0.229564,-1.049842,-0.305916
1331,0.014087,-0.766259,-0.34977
1332,-0.154614,-0.351862,-0.255428
1333,-0.154141,0.403766,-0.247796
1334,0.839696,1.841294,0.494509
1335,0.665389,1.414153,0.720398
1336,-0.427811,1.337682,-0.235213
1337,-1.068369,1.703068,-0.294506
1338,-0.365281,2.080018,-0.449001
1339,0.803493,1.467851,-1.216824
1340,0.337313,0.194661,-0.074386
1341,0.313622,-0.159795,0.027386
1342,-0.408402,-1.127075,0.444842
1343,0.206969,-1.36927,0.744719
1344,0.485845,-1.476762,0.83583
1345,0.348839,-1.596332,0.648794
1346,0.350724,-1.529117,0.474848
1347,0.27552,-1.124578,0.319502
1348,-0.064813,0.338814,-0.978787
1349,-0.331706,-0.043665,-0.911508
1350,-0.143143,-0.511384,-0.868927
1351,0.874975,-1.019975,2.260063
1352,-0.784732,2.808701,-0.547419
1353,-1.413389,1.828485,0.162605
1354,0.43462,-0.598977,-0.742446
1355,0.178739,1.679461,0.404214
1356,-0.3583,2.32588,0.042999
1357,0.06222,1.003641,-0.557759
1358,0.203885,0.938611,-0.633763
1359,0.154407,0.968342,-0.683013
1360,-0.073221,0.236455,-0.766589
1361,-0.141963,-0.46905,-0.843992
1362,-0.262565,-0.662296,-0.904185
1363,0.303431,-0.664805,-0.799561
1364,0.307856,-0.644358,-0.83952
1365,0.202901,-0.418347,-1.276268
1366,-0.027419,-0.853076,-0.690145
1367,-0.205762,-1.027572,-0.3603
1368,-0.211243,-0.976843,-0.317315
1369,-0.233379,-0.599538,-0.196368
1370,-0.171098,0.055885,-0.213768
1371,0.07781,1.702648,-0.235347
1372,0.402603,1.668517,0.23616
1373,-0.021784,1.332119,0.312572
1374,-0.5444,2.333321,-0.333488
1375,-0.327843,2.984949,-0.420195
1376,0.88146,1.940556,-1.249514
1377,0.271633,0.205889,-0.208123
1378,0.048154,-0.604037,0.343066
1379,-0.269299,-0.861356,0.719654
1380,0.014361,-1.232263,0.976096
1381,0.616954,-1.498576,1.017127
1382,0.50106,-1.728686,0.728154
1383,0.310186,-1.665443,0.53694
1384,0.450266,-1.033275,-0.301746
1385,-0.11904,0.147364,-0.921325
1386,-0.314525,0.029118,-0.980762
1387,0.285883,-1.153001,-0.819619
1388,0.740615,-1.180796,1.159898
1389,0.088523,2.141944,0.093231
1390,0.781895,-0.573851,-0.06925
1391,1.306446,0.450476,0.925517
1392,0.97949,1.650284,0.952206
1393,-0.994604,1.770501,-0.364489
1394,0.222089,1.564139,-0.695585
1395,0.386155,1.672031,-0.827144
1396,-0.354788,0.698517,-0.934976
1397,-0.593285,-0.468794,-0.735766
1398,-0.521766,-0.87249,-0.595328
1399,0.25274,-1.059517,-0.648109
1400,0.546354,-0.336418,-0.848647
1401,0.655301,0.222581,-1.164872
1402,-0.383143,-0.794307,-1.14115
1403,-0.622224,-1.104777,-0.458641
1404,-0.513514,-1.074726,-0.474266
1405,0.159658,-0.583596,-0.269472
1406,-0.028992,0.069121,-0.127834
1407,-0.064371,0.611137,-0.040027
1408,0.670788,1.542125,0.516406
1409,0.57893,1.090897,0.667972
1410,-0.281457,1.661323,-0.157523
1411,-0.826857,2.869157,-0.22203
1412,0.417939,2.578522,-0.551799
1413,0.366784,0.905714,-0.500226
1414,0.220364,-0.38581,0.057194
1415,0.048254,-1.297045,0.377048
1416,-0.208366,-1.539917,0.634321
1417,0.51009,-1.609969,1.035913
1418,0.565913,-1.752442,1.092111
1419,0.467227,-1.689788,0.834021
1420,0.238933,-1.187444,0.36638
1421,0.09046,-0.318398,-0.616106
1422,0.042107,0.1644,-0.945208
1423,-0.173168,-0.142881,-0.76351
1424,0.688168,-1.363775,0.136003
1425,1.011756,-1.703452,2.061845
1426,0.2158,1.155729,0.613059
1427,-1.198702,2.000007,2.303887
1428,0.265558,-1.05998,-1.763026
1429,0.62262,0.671564,0.515604
1430,0.089842,2.088157,0.14908
1431,-0.134724,1.544483,-0.421058
1432,0.250787,1.416302,-0.782431
1433,0.065566,1.321549,-0.82318
1434,-0.2487,0.751314,-0.836435
1435,-0.319048,-0.665313,-0.782428
1436,-0.325343,-0.935382,-0.733157
1437,-0.066831,-0.895154,-0.733734
1438,0.620232,-0.316653,-0.692003
1439,0.646184,-0.248975,-0.978353
1440,-0.004076,-0.612764,-1.275583
1441,-0.427555,-0.729568,-0.897761
1442,-0.085777,-0.827914,-0.480735
1443,0.145543,-0.804129,-0.24668
1444,0.081659,1.021251,0.130589
1445,0.062792,1.300645,0.226222
1446,0.104967,1.183881,0.665953
1447,-0.413525,1.300972,-0.048273
1448,-0.745103,1.95029,-0.298927
1449,-0.552238,2.254926,-0.37249
1450,0.939918,1.917686,-0.682137
1451,0.086253,-0.347087,0.348716
1452,-0.308703,-1.015266,0.274392
1453,0.053484,-1.55242,0.518244
1454,0.419434,-1.505291,0.602074
1455,0.498095,-1.670753,0.944955
1456,0.460702,-1.758163,0.765551
1457,0.162344,-1.404281,0.493222
1458,0.186149,-0.693097,-0.112686
1459,-0.059358,0.482881,-0.753877
1460,-0.33009,0.215065,-0.592979
1461,-0.013888,-0.894862,-0.827637
1462,0.914354,-2.329936,2.362833
1463,0.89226,-0.487674,1.607536
1464,-1.332952,5.904171,1.544005
1465,0.724598,-0.376066,-0.52714
1466,0.233282,-0.511153,0.099511
1467,-0.039352,1.794605,0.207076
1468,0.389468,2.024542,-0.117337
1469,0.440191,1.067254,-0.419926
1470,-0.039119,0.680595,-0.668077
1471,-0.517437,0.713761,-0.947864
1472,-0.72872,0.055875,-1.143773
1473,-0.384117,-0.682825,-0.705657
1474,0.102931,-1.06993,-0.688685
1475,0.521952,-0.484569,-0.879444
1476,0.332163,-0.427268,-0.983105
1477,-0.039253,-0.856286,-0.75673
1478,-0.139943,-0.987151,-0.515906
1479,0.021209,-0.85856,-0.311529
1480,-0.055517,-0.631368,-0.191973
1481,-0.204362,-0.463175,-0.156464
1482,0.052577,1.247453,0.111853
1483,0.696415,2.031317,0.483831
1484,0.180886,1.547538,0.420797
1485,-0.274487,1.520275,0.093202
1486,-0.545314,1.999864,-0.311921
1487,-0.029919,2.05611,-0.469665
1488,0.440136,1.869625,-0.702736
1489,-0.382647,-0.390575,-0.094789
1490,-0.457697,-0.999846,0.048424
1491,-0.003116,-1.293469,0.450656
1492,0.165365,-1.629595,0.722494
1493,0.175756,-1.891641,0.672447
1494,0.202665,-1.801395,0.580001
1495,0.415658,-0.829697,0.209439
1496,0.166729,-0.133809,-0.33899
1497,0.200824,0.413351,-1.040957
1498,0.064013,-0.725902,-0.754719
1499,0.176121,-1.333518,-0.353561
1500,1.209087,-1.939164,2.108334
1501,0.090604,0.276105,1.902869
1502,-2.590591,4.840687,-0.063198
1503,1.565625,-1.255111,-0.198072
1504,0.451711,-0.768243,-0.274883
1505,0.054779,1.992833,0.348596
1506,-0.480427,2.708682,-0.271983
1507,0.479109,1.332192,-0.271968
1508,0.162092,1.2228,-0.566864
1509,-0.584827,0.867317,-0.675769
1510,-0.939457,-0.021336,-0.7949
1511,-0.778879,-0.749851,-0.902877
1512,-0.095177,-0.9583,-0.54146
1513,0.753197,-0.385008,-0.911123
1514,0.75732,-0.298513,-1.049207
1515,0.083465,-0.637509,-1.166207
1516,-0.350539,-0.848423,-0.847261
1517,-0.313986,-1.063341,-0.393849
1518,-0.115655,-0.772419,-0.272674
1519,-0.120419,-0.345179,-0.029028
1520,-0.301583,0.606666,0.02174
1521,0.1819,1.809893,0.338776
1522,0.400736,1.466238,0.516416
1523,-0.803754,1.351902,-0.132923
1524,-0.677745,1.81749,-0.339061
1525,0.236618,2.165034,-0.837334
1526,0.853852,1.243868,-0.714783
1527,0.168907,0.058979,-0.041378
1528,-0.238217,-0.833449,0.113491
1529,-0.488622,-1.143364,0.631135
1530,0.111193,-1.35174,0.672234
1531,0.488133,-1.749563,0.942234
1532,0.266295,-1.782718,0.764139
1533,0.194752,-1.06407,0.205245
1534,0.297122,-0.176219,-0.272792
1535,0.019983,0.307544,-0.860214
1536,-0.537767,-0.130578,-0.576429
1537,0.114274,-1.241999,-0.610954
1538,0.451549,-1.999257,0.481398
1539,1.458845,-1.676636,2.817993
1540,-1.938871,4.678741,1.520624
1541,0.977812,-0.837593,3.684272
1542,0.346717,-1.363449,-0.838857
1543,0.522137,1.295139,0.753928
1544,-0.238246,3.658749,-0.006101
1545,0.384635,1.459093,-0.361073
1546,-0.07498,1.14802,-0.648363
1547,-0.279988,1.025883,-0.93304
1548,-0.610712,0.588877,-0.764041
1549,-0.303105,-0.74731,-0.688654
1550,-0.278714,-0.732786,-0.728223
1551,0.600221,-0.817045,-0.950759
1552,0.971675,-0.21291,-1.077968
1553,-0.191041,-0.597913,-1.011824
1554,-0.418051,-0.659235,-0.799413
1555,-0.426207,-0.743884,-0.349437
1556,-0.477656,-0.735302,-0.261173
1557,-0.743369,-0.597251,-0.109597
1558,0.007797,0.526878,-0.011087
1559,0.891013,2.264981,0.517493
1560,0.388503,1.444425,0.76248
1561,-0.640211,1.873124,-0.76083
1562,-0.811455,2.013114,-0.255776
1563,-0.035709,2.200433,-0.624866
1564,0.287427,0.554075,-0.337795
1565,0.078567,-0.353827,0.150042
1566,-0.276684,-1.253724,0.451774
1567,-0.208051,-1.663854,0.498255
1568,0.482536,-1.649954,0.654769
1569,0.548205,-1.58324,0.730773
1570,0.143149,-1.405514,0.54669
1571,0.1289,-1.077932,0.228994
1572,0.131694,-0.403115,-0.079331
1573,-0.042295,0.458544,-0.870693
1574,-0.109128,0.129967,-1.152183
1575,0.321522,-1.074957,-0.878919
1576,0.992625,-1.589079,0.963351
1577,0.432,0.882956,2.421417
1578,-1.51315,2.360281,0.542638
1579,0.626963,-1.333127,-1.519481
1580,0.538322,0.632532,0.336378
1581,0.159005,1.751661,0.635935
1582,-0.260625,1.565077,-0.37215
1583,0.348093,1.549026,-0.583061
1584,0.137258,1.239569,-0.609577
1585,-0.370917,0.568486,-0.350356
1586,-0.604863,0.251489,-0.502636
1587,-0.710163,-0.274231,-1.036142
1588,0.054338,-0.756092,-0.944723
1589,0.493001,-0.675934,-0.776854
1590,0.46326,-0.600257,-0.761837
1591,-0.10422,-0.662241,-1.017729
1592,-0.253099,-0.778727,-0.879485
1593,-0.261504,-0.994565,-0.214794
1594,-0.249045,-0.690452,-0.159073
1595,-0.277689,-0.524665,-0.030427
1596,-0.048738,0.733183,0.0101
1597,0.399009,1.508811,0.192106
1598,0.376141,1.49543,0.441763
1599,0.003034,1.361564,0.472581
1600,-0.528954,2.285714,-0.234622
1601,-0.163306,2.493959,-0.421031
1602,0.748624,1.819655,-0.932103
1603,0.037934,0.040403,-0.068195
1604,0.027339,-0.469042,0.125478
1605,-0.2876,-1.182364,0.55945
1606,-0.024819,-1.536882,0.737194
1607,0.253429,-1.662779,0.814338
1608,0.476586,-1.555795,0.694447
1609,0.246095,-1.175986,0.283103
1610,0.195619,-0.675493,-0.255665
1611,0.056944,-0.419351,-0.382407
1612,-0.23493,-0.100454,-0.544293
1613,-0.160343,-0.84852,-0.503393
1614,0.047155,-1.615601,0.324027
1615,1.157241,-1.560234,2.36352
1616,-1.393412,5.085428,-4.808152
1617,0.882632,0.695264,3.880796
1618,0.265287,-1.768446,-1.249747
1619,0.315337,0.032084,0.145831
1620,-0.186159,3.929807,0.449153
1621,0.5047,1.52917,-0.164899
1622,0.055485,0.661443,-0.123022
1623,-0.323988,0.716329,-0.679386
1624,-0.747155,0.812381,-0.578836
1625,-0.791065,-0.221981,-0.815214
1626,-0.555549,-0.899225,-0.926941
1627,-0.06243,-1.101401,-0.602333
1628,0.398186,-0.462824,-0.789516
1629,0.487729,-0.511056,-0.957768
1630,0.146181,-0.700651,-0.653518
1631,-0.180368,-0.827263,-0.149815
1632,-0.22993,-0.923619,-0.239404
1633,-0.490501,-0.864848,-0.36967
1634,-0.497389,-0.829741,-0.335936
1635,-0.275401,-0.409698,-0.181277
