,userAcceleration.x,userAcceleration.y,userAcceleration.z
0,-0.587671,0.074675,0.742537
1,-0.619553,2.411426,0.482626
2,0.445137,3.532516,0.409042
3,0.831087,-0.278394,-0.010593
4,0.530581,-1.213555,-0.151341
5,0.299989,-0.857716,-0.070493
6,0.845459,0.087976,-0.398431
7,1.192676,1.51655,-0.37961
8,0.70219,1.834248,0.010927
9,0.455021,0.18269,-0.860307
10,0.556331,0.189744,-0.815575
11,-0.183582,0.443551,-0.68388
12,0.326203,-0.178293,-0.151778
13,0.469233,-0.973316,-0.155288
14,0.78212,-1.071851,-0.524477
15,0.617261,-0.857608,-0.400608
16,0.390607,-0.974419,0.040377
17,0.190071,-0.790825,0.254151
18,-0.076276,-0.143786,0.455032
19,0.117405,1.044704,0.002238
20,0.642693,3.773429,0.216483
21,-0.79692,1.288805,0.79205
22,-0.757427,0.336886,-0.2135
23,-0.120698,0.820476,-0.290301
24,0.008405,1.118571,-0.174884
25,-0.046949,0.551349,-0.129845
26,-0.325933,-1.59354,-0.151354
27,-0.452911,-1.529208,-0.334521
28,-0.403263,-1.107683,0.183364
29,-0.360297,-0.875255,0.559136
30,-0.362976,-0.91999,0.724501
31,-0.166373,-0.981636,0.794204
32,-0.316843,-0.968588,0.720974
33,-0.438253,-0.789818,0.507047
34,-0.717734,-0.669367,1.350604
35,-0.863923,-0.377041,0.771988
36,-1.568455,5.308052,0.283103
37,1.032277,1.529032,0.399212
38,1.315298,-0.822834,-0.275524
39,1.295757,-1.311265,-0.082661
40,0.945438,-0.502467,-0.198925
41,1.335873,1.013605,-0.270921
42,0.749957,2.115258,0.110832
43,-0.124858,0.569641,-0.780189
44,0.128816,0.13187,-0.889608
45,-0.268503,0.197242,-0.425988
46,0.096642,-0.171027,0.052359
47,0.596689,-1.057444,-0.202168
48,0.560329,-1.053365,-0.794518
49,0.422087,-0.770501,-0.249392
50,0.489877,-0.656866,0.243007
51,-0.029722,-0.164672,-0.054935
52,0.398774,0.8401,-0.193831
53,1.151823,3.510065,0.18242
54,0.236007,1.752638,1.096674
55,-0.802563,0.661733,-0.090061
56,-0.471355,0.94343,-0.480591
57,-0.473996,1.104931,-0.058214
58,-0.181359,0.762675,-0.003569
59,-0.017475,-0.635446,0.177176
60,-0.334362,-1.729018,-0.03333
61,-0.268676,-1.653752,0.098453
62,-0.632278,-1.462234,0.519512
63,-0.365209,-1.405411,0.893384
64,-0.034957,-0.999201,0.908162
65,-0.151106,-0.802415,0.524134
66,-0.124185,-0.552205,0.208498
67,-0.186363,-0.494173,0.540532
68,-0.670028,-0.511181,1.258259
69,-0.726358,0.937775,-1.222115
70,-1.078019,3.954061,0.064422
71,1.292668,0.449031,0.45291
72,1.440277,-0.463852,-0.131077
73,0.648387,-0.292859,0.451069
74,0.807486,1.106744,-0.177942
75,0.444214,2.185456,-0.353936
76,-0.348078,0.477509,-0.752047
77,-0.042509,0.291113,-1.117736
78,-0.30479,0.122781,-0.628174
79,0.286451,-0.411223,0.101417
80,0.547869,-1.074595,0.03598
81,0.786723,-1.557454,-0.626463
82,0.598945,-0.616927,-0.879473
83,0.157063,-0.514032,-0.344095
84,0.073389,-0.293988,0.377851
85,-0.109085,0.405313,-0.038663
86,1.135525,4.52857,0.286664
87,1.060899,4.085337,1.074462
88,-1.166924,1.119566,0.051947
89,-0.994905,1.164344,-0.532106
90,-0.340702,1.197478,-0.127771
91,-0.038997,1.111506,-0.018189
92,0.141172,0.330276,0.151945
93,-0.018598,-1.4426,0.126131
94,-0.165892,-1.887735,0.416662
95,-0.340803,-1.447395,0.496479
96,-0.423463,-1.627099,0.795303
97,-0.371085,-1.764621,0.963959
98,-0.495304,-1.037896,0.843403
99,-0.603772,-0.843009,0.469841
100,-0.52194,-0.556698,0.2056
101,-0.073156,-0.221141,0.680806
102,-0.121095,-0.215997,0.659704
103,-0.992696,1.015483,-1.33011
104,-0.48623,3.971085,0.400366
105,0.839627,0.729164,0.576469
106,1.079014,-0.658583,-0.17312
107,0.506472,-0.519648,0.058276
108,0.401421,0.164614,0.314862
109,0.198738,0.83344,-0.351554
110,0.01135,2.081298,-0.112321
111,0.023476,0.457505,-0.730728
112,0.149302,0.326998,-1.442902
113,0.056272,0.01128,-0.463623
114,0.535717,-0.571313,0.145949
115,0.793057,-1.250259,-0.191661
116,0.789748,-0.902061,-0.598774
117,0.597815,-0.709419,-0.454513
118,0.387054,-0.724816,-0.180007
119,-0.150519,-0.280386,0.26942
120,0.029888,0.435465,-0.022386
121,0.876258,4.422682,0.085102
122,-0.688463,1.692536,1.052868
123,-1.18824,0.543534,-0.479506
124,-0.429896,0.841579,-0.512851
125,-0.357878,1.186663,-0.204024
126,0.276133,0.657711,-0.084416
127,0.063358,-1.243378,0.129248
128,0.070828,-1.949675,-0.159573
129,-0.140483,-1.701153,-0.164811
130,-0.353705,-1.326937,0.569278
131,-0.361458,-1.248522,0.768131
132,-0.107275,-0.862605,0.678095
133,-0.187753,-0.597808,0.393016
134,-0.269267,-0.47535,0.257218
135,-0.320691,-0.421959,1.155785
136,-0.855229,-0.402018,0.406039
137,-1.17557,1.850206,0.669281
138,-0.362157,2.198123,0.247948
139,1.210968,0.330999,-0.09625
140,1.386943,-0.602416,0.021269
141,1.394484,-0.636231,0.170634
142,1.177612,0.469693,0.144533
143,1.214347,1.435447,-0.24335
144,0.531847,1.324512,0.128829
145,-0.470657,0.14437,-0.975524
146,-0.724095,0.501948,-0.524667
147,-0.530084,0.394997,-0.405479
148,-0.175027,0.064448,-0.196955
149,0.489235,-1.200913,-0.134422
150,0.525085,-1.456412,-0.471751
151,0.626402,-0.706417,-0.413191
152,0.352572,-0.597286,-0.133046
153,0.283375,-0.573458,0.242689
154,0.14908,0.363417,0.182647
155,1.037922,4.519529,0.870929
156,-0.040457,2.029458,1.204375
157,-1.425603,0.349512,-0.556367
158,-0.826889,0.844886,-0.693101
159,-0.543447,1.23775,-0.091619
160,-0.015743,0.897342,0.265301
161,0.232456,-1.343881,0.260439
162,0.030216,-1.966802,0.17669
163,-0.091515,-2.083622,0.240955
164,-0.620734,-1.56288,0.795331
165,-0.496792,-1.553165,0.867982
166,-0.488803,-1.220143,0.766454
167,-0.329267,-0.787906,0.232833
168,-0.078988,-0.565606,0.118018
169,-0.211843,-0.397043,1.350835
170,-1.013142,-0.045103,-0.935728
171,-0.73369,2.597526,-1.124784
172,1.403814,1.159214,0.798485
173,1.1579,-0.953987,-0.145813
174,1.046862,-1.242244,-0.322596
175,0.69386,0.046955,0.251454
176,0.573477,1.756324,-0.09558
177,0.266581,2.128049,-0.166619
178,-0.584803,0.545076,-0.883041
179,-0.500935,0.185369,-1.358096
180,-0.007622,-0.024663,-0.316795
181,0.469071,-0.588535,-0.060738
182,0.898095,-1.553205,-0.146552
183,1.177226,-1.213399,-0.938838
184,0.600437,-0.39031,-0.610494
185,0.22459,-0.400261,0.21937
186,-0.05958,0.295711,0.010317
187,0.832249,2.794762,0.09988
188,0.542418,3.254527,1.39612
189,-1.330308,1.021427,0.444335
190,-1.248926,1.18411,-0.451748
191,-0.434408,0.962092,-0.043952
192,-0.109523,1.159448,-0.130948
193,0.20786,0.946777,0.141563
194,0.124241,-0.975585,0.137793
195,-0.13499,-2.052837,0.305464
196,-0.237164,-1.545253,0.391129
197,-0.524142,-1.481855,0.635573
198,-0.458649,-1.525121,0.936175
199,-0.42366,-1.459898,0.96854
200,-0.559573,-1.040406,0.934707
201,-0.677278,-0.879847,0.406698
202,-0.133612,-0.392158,0.385998
203,-0.336848,0.164973,0.898508
204,-0.656327,0.836076,-0.592965
205,-0.635147,5.282244,-0.04943
206,1.204223,0.278866,0.637854
207,0.987661,-0.852173,-0.199647
208,0.445699,-0.522878,0.555175
209,0.553261,0.151969,0.301827
210,0.918791,1.00488,-0.142571
211,-0.011909,1.141119,-0.190189
212,-0.432072,0.447893,-0.924767
213,-0.535306,0.177705,-0.820666
214,-0.136862,0.229885,-0.334506
215,0.400757,-0.468868,-0.024324
216,0.810542,-1.378103,-0.200307
217,0.8223,-1.23026,-0.729306
218,0.529094,-0.634401,-0.397762
219,0.360694,-0.717404,-0.27401
220,0.181109,-0.801398,0.323562
221,-0.183273,-0.131799,0.285879
222,0.702944,1.732403,-0.527437
223,0.813427,5.164161,1.020803
224,-1.006532,0.102234,0.026986
225,-1.339567,0.620996,-0.748629
226,-0.492428,1.325106,-0.283983
227,-0.003124,1.288799,-0.030673
228,0.242248,0.004046,0.47846
229,-0.007999,-1.895132,0.108949
230,-0.148549,-1.684698,0.263758
231,-0.520765,-1.519345,0.667569
232,-0.338732,-1.590546,0.913691
233,-0.183537,-1.295296,1.057933
234,-0.324584,-1.058362,0.974031
235,-0.398487,-0.576387,0.124449
236,-0.079319,-0.489684,0.513789
237,-0.346049,-0.637569,1.324349
238,-1.21282,-0.468366,0.088627
239,-1.588479,6.384069,-0.931529
240,1.261514,1.436594,0.694433
241,1.507738,-0.456044,0.17271
242,1.161917,-0.689081,-0.358598
243,0.935,-0.290641,0.05086
244,0.923367,0.219243,0.122398
245,0.171533,1.683172,-0.00658
246,-0.074813,0.886303,-0.518631
247,-0.28583,0.072243,-0.943261
248,-0.688451,0.218758,-0.531915
249,-0.304416,0.137508,-0.08508
250,0.539146,-1.071887,-0.025771
251,0.706833,-1.58299,-0.535795
252,0.738439,-0.79045,-0.576643
253,0.377823,-0.660811,-0.000482
254,0.019479,-0.242495,0.192604
255,0.470107,0.74291,-0.118626
256,1.498797,6.065089,0.602502
257,-0.888526,0.839333,0.993207
258,-1.776026,0.800016,-0.821538
259,-0.372757,1.133741,-0.546942
260,-0.222961,1.321727,0.195471
261,0.172175,1.198567,0.23915
262,0.096267,-1.374845,0.256123
263,-0.038156,-1.869407,0.097196
264,-0.223259,-1.745842,0.117569
265,-0.655044,-1.672918,0.666723
266,-0.409171,-1.508059,1.036251
267,-0.177428,-0.879476,0.792702
268,-0.183501,-0.574125,0.271816
269,0.02295,-0.37117,0.138137
270,-0.240371,-0.579929,1.21646
271,-1.078382,-0.519443,-0.010633
272,-1.445878,2.501462,1.020397
273,0.046911,3.02998,0.283204
274,1.269698,0.586702,0.277254
275,1.251687,-0.615324,-0.039162
276,1.170589,-0.316802,0.430008
277,1.104975,0.493384,0.094886
278,0.230713,1.492741,-0.100233
279,-0.080955,1.246087,-0.03657
280,-0.028779,0.11316,-0.895658
281,-0.316715,0.270942,-0.771164
282,-0.115741,0.12046,-0.371468
283,0.300772,-0.844109,-0.028691
284,0.508281,-1.593991,-0.315147
285,0.607948,-0.849876,-0.914824
286,0.216929,-0.47699,-0.424783
287,0.07434,-0.349034,0.168035
288,-0.266489,0.136715,0.012925
289,0.586069,2.742953,-0.488184
290,0.525217,3.75478,1.187129
291,-0.853871,0.38846,0.422962
292,-0.8935,0.946288,-0.648635
293,0.024652,1.119304,-0.407434
294,0.159687,1.281002,-0.024746
295,0.025374,0.44972,-0.053202
296,0.041356,-1.687482,0.390664
297,-0.326009,-1.487127,0.220118
298,-0.620575,-1.394292,0.511714
299,-0.558598,-1.460678,0.900539
300,-0.308649,-1.175027,1.046752
301,-0.363005,-0.728245,0.809362
302,-0.533061,-0.659433,0.373009
303,-0.419218,-0.081887,0.593143
304,-0.607156,1.162599,0.00473
305,-1.587078,1.811688,0.291348
306,-0.988079,3.222878,0.05697
307,0.529337,-0.251454,0.130535
308,0.543747,-0.907874,0.515525
309,0.669542,-0.851685,0.523895
310,1.001112,1.059517,0.088222
311,1.586742,2.062186,-0.34315
312,0.284913,0.54202,-0.306548
313,0.002632,0.072147,-0.829003
314,0.218292,0.427769,-0.559863
315,-0.7027,0.335025,-0.661169
316,-0.273062,-0.060931,0.090944
317,0.209948,-0.851248,-0.053657
318,0.521798,-1.581765,-0.574433
319,0.555808,-0.717712,-0.645826
320,0.281763,-0.583638,-0.306477
321,0.120404,-0.610517,-0.006789
322,-0.37878,-0.087791,0.156782
323,0.362678,1.222829,-0.272295
324,0.065238,4.207741,0.737581
325,-0.517021,1.034791,0.514123
326,-0.806818,0.45087,-0.480297
327,-0.165238,1.011545,-0.306612
328,0.060439,1.24523,-0.017397
329,0.215919,0.784533,0.221095
330,-0.060798,-1.431137,0.267243
331,-0.369192,-1.842854,-0.013935
332,-0.531382,-1.434479,0.385046
333,-0.421581,-1.326612,0.608144
334,-0.414609,-1.31064,0.777878
335,-0.310839,-0.996335,0.820129
336,-0.51953,-0.862337,0.555874
337,-0.50492,-0.712839,0.38467
338,-0.661582,-0.238331,1.048375
339,-0.935147,0.099147,-0.217822
340,-0.638199,0.950109,-0.738064
341,1.204001,0.885051,0.623972
342,1.009539,-0.724209,-0.014156
343,0.926,-0.928771,0.203399
344,0.85095,-0.599177,0.29057
345,1.132786,1.071897,-0.145129
346,0.834635,1.704965,0.2936
347,-0.137771,0.238279,-0.686093
348,-0.232033,0.057469,-1.050003
349,-0.526272,0.350533,-0.718359
350,-0.165557,-0.016588,-0.193305
351,0.099392,-0.381858,-0.001476
352,0.616161,-1.411974,-0.28312
353,0.739261,-0.980743,-0.66188
354,0.425823,-0.551651,-0.464651
355,0.155021,-0.572113,0.170705
356,-0.079932,-0.23722,0.397889
357,0.134663,0.656257,-0.029813
358,0.73875,4.864486,0.755134
359,-0.896321,1.052181,1.044361
360,-1.540083,0.699074,-0.281565
361,-0.467223,0.998359,-0.052846
362,-0.342773,1.193793,0.121544
363,0.387876,0.869028,0.107052
364,0.333396,-0.772308,-0.073334
365,0.083682,-1.680005,-0.02996
366,0.223397,-1.709985,0.039402
367,-0.400992,-1.387141,0.67075
368,-0.569548,-1.341782,0.912706
369,-0.460013,-1.154067,0.827887
370,-0.455541,-1.002348,0.692628
371,-0.300424,-0.50017,0.250546
372,-0.362087,-0.304522,0.611036
373,-0.467397,-0.12618,0.977714
374,-1.186037,4.026229,-0.068628
375,0.815425,1.597318,1.215201
376,1.236791,-0.599562,0.086409
377,0.95422,-0.856764,0.10406
378,0.318706,-0.347426,0.355465
379,0.641727,0.948776,-0.088193
380,0.761831,2.009374,-0.303405
381,0.04523,0.453839,-0.323583
382,0.117372,0.085011,-1.072401
383,-0.091759,0.245073,-0.922802
384,-0.197518,-0.038781,-0.147736
385,-0.037426,-0.268379,0.114931
386,0.443598,-1.404165,-0.511357
387,0.445679,-1.255576,-0.630122
388,0.483071,-0.984138,-0.534691
389,0.170874,-0.49302,0.224217
390,-0.120917,-0.302473,0.024508
391,0.159468,0.202759,-0.107062
392,0.921213,3.436138,-0.115474
393,-0.46273,2.21229,0.996519
394,-0.846225,0.611086,-0.595444
395,-0.309351,0.904322,-0.632011
396,0.030573,1.282149,-0.209378
397,0.268149,0.598943,0.020865
398,0.012082,-1.035089,0.115744
399,-0.23071,-1.675656,-0.219269
400,-0.403473,-1.553902,-0.090147
401,-0.535073,-1.318008,0.843001
402,-0.429354,-1.306373,1.138713
403,-0.17881,-1.053657,0.992764
404,-0.164417,-0.890792,0.595167
405,-0.352922,-0.577223,0.337327
406,-0.510164,-0.421534,0.513535
407,-0.923429,-0.122027,0.802501
408,-0.969221,0.279541,-0.365255
409,-0.612639,1.921569,0.489527
410,1.433679,0.531009,0.979423
411,1.332262,-0.375129,-0.140552
412,1.039562,-0.790079,0.109312
413,0.842979,0.010312,0.467653
414,0.561378,1.084261,0.022392
415,0.227479,1.215774,0.087691
416,-0.421008,0.200245,-0.83067
417,-0.417015,0.038208,-0.877972
418,-0.521002,0.400514,-0.599114
419,0.228133,-0.337368,0.030425
420,0.327811,-0.707786,0.11094
421,0.640539,-1.420612,-0.412048
422,0.480531,-0.795141,-0.510747
423,0.293703,-0.679655,-0.416389
424,0.098347,-0.582744,0.299251
425,0.181784,0.309516,-0.068182
426,0.835769,1.82515,-0.504885
427,0.565144,4.36938,1.16736
428,-0.947619,-0.174082,0.26552
429,-1.245903,0.661556,-0.75424
430,-0.224069,0.858151,-0.43195
431,-0.343803,1.040238,0.162965
432,0.087013,0.548849,0.266231
433,0.042803,-0.74336,0.221208
434,-0.147213,-1.655864,-0.012482
435,-0.385184,-1.451838,0.189083
436,-0.199615,-1.269986,0.792161
437,-0.397409,-1.238388,0.82032
438,-0.430586,-1.082088,0.63849
439,-0.400556,-0.717008,0.429547
440,-0.469051,-0.634155,0.466415
441,-0.867988,-0.24552,0.862914
442,-1.312656,3.580633,-0.472835
443,-1.421317,5.473393,0.842481
444,1.392653,0.891922,0.516216
445,0.986781,-1.250276,0.362814
446,0.754929,-0.845861,0.135932
447,0.847337,0.301478,0.391818
448,0.78964,1.554201,0.014075
449,0.537549,1.688922,-0.143449
450,-0.600345,0.170822,-0.807797
451,-0.128196,0.218533,-0.590861
452,-0.160561,0.219279,-0.266702
453,0.061702,-0.501828,-0.089988
454,0.243702,-1.094065,-0.276224
455,0.486194,-1.246033,-0.562143
456,0.447191,-0.774165,-0.550847
457,0.163023,-0.629555,-0.173756
458,0.049445,-0.369847,0.320391
459,-0.064801,0.157032,0.045392
460,1.203503,3.495893,-0.394332
461,-0.111215,2.601969,1.181643
462,-0.88032,0.520234,0.760049
463,-1.011997,0.864885,-0.578577
464,-0.322967,1.015467,0.114381
465,-0.062445,0.966055,0.266432
466,0.201573,0.175471,0.216569
467,-0.069177,-1.478924,-0.023387
468,-0.018496,-1.748597,-0.098687
469,-0.302433,-1.391388,0.110886
470,-0.47891,-1.257157,0.774588
471,-0.48228,-1.246634,0.781471
472,-0.411336,-1.154065,0.756266
473,-0.434351,-0.797168,0.411048
474,-0.364325,-0.60275,0.411203
475,-0.408944,-0.462692,0.684264
476,-0.511196,2.384048,-1.473076
477,-1.525303,6.502961,0.471098
478,1.072706,1.034113,0.965107
479,1.117265,-0.80866,-0.026751
480,0.856773,-1.160649,0.053894
481,0.510444,-0.65751,0.381261
482,0.538296,0.451267,0.363807
483,0.441074,1.414617,-0.178315
484,-0.403344,0.422907,-0.765411
485,-0.460271,0.065138,-0.722699
486,-0.426088,0.281432,-0.309118
487,0.106103,-0.3354,-0.162987
488,0.296013,-1.04758,-0.405533
489,0.435175,-1.073625,-0.410636
490,0.479329,-0.867699,-0.433625
491,0.253299,-0.724774,-0.240557
492,0.18699,-0.673255,0.191199
493,-0.001679,0.054174,0.076322
494,1.313609,2.933273,-0.637953
495,1.43427,5.611954,0.60541
496,-1.357751,0.119357,-0.243585
497,-1.163349,0.781239,-0.819484
498,-0.366809,1.052285,-0.329062
499,-0.216331,0.949467,0.259218
500,0.18469,0.065639,0.34312
501,0.053565,-1.352528,0.104846
502,-0.071813,-1.530906,0.132174
503,-0.385612,-1.325571,0.410639
504,-0.423549,-1.317611,0.749082
505,-0.393312,-1.117569,0.758762
506,-0.463551,-0.853652,0.552906
507,-0.453774,-0.749552,0.407728
508,-0.439351,-0.544961,0.280154
509,-0.654006,-0.683997,1.01976
510,-0.944082,-0.627451,1.05432
511,-0.970609,2.970274,0.286678
512,0.852623,3.678727,0.826018
513,1.910398,0.721414,0.856675
514,0.779736,-1.161332,-0.206504
515,0.536901,-0.568311,0.086355
516,0.493219,0.13527,0.44074
517,0.127799,0.775703,0.001406
518,0.133132,1.384753,-0.007812
519,-0.271327,0.505084,-0.637214
520,-0.505175,0.357122,-0.812226
521,-0.099189,0.149697,-0.356386
522,0.260266,-0.589919,-0.100104
523,0.436844,-1.212561,-0.30255
524,0.57276,-1.255644,-0.528813
525,0.537967,-1.067978,-0.558889
526,0.185427,-0.692745,-0.046145
527,0.088288,-0.258225,0.382403
528,0.205947,0.518256,-0.030803
529,0.29811,4.021705,1.382251
530,-1.545286,0.063228,0.230514
531,-1.646142,0.572515,-0.481867
532,-0.366713,0.824099,-0.32676
533,-0.237039,0.892342,0.036791
534,0.061572,0.878656,0.135682
535,0.29311,-0.54318,0.296871
536,0.164393,-1.672758,0.256314
537,0.027142,-1.615478,0.447595
538,-0.402759,-1.268899,0.450664
539,-0.39659,-1.165325,0.703474
540,-0.424092,-1.124504,0.693237
541,-0.496962,-1.027066,0.639731
542,-0.45329,-0.861386,0.500618
543,-0.467951,-0.218544,0.602619
544,-0.56878,0.697603,-0.531024
545,-0.988273,3.069019,-0.19047
546,1.373834,2.834537,1.03388
547,1.281525,-0.712599,0.148535
548,0.655953,-1.092138,0.363667
549,0.246209,-0.738969,0.021478
550,0.620412,0.126568,0.391535
551,0.738293,1.502163,0.274189
552,0.161774,0.943893,-0.032548
553,-0.66792,0.00533,-0.381401
554,-0.677719,0.340736,-0.374288
555,-0.357978,0.461236,-0.269962
556,-0.200697,-0.005345,-0.147627
557,0.14307,-1.235849,-0.119787
558,0.255149,-1.267478,-0.07734
559,0.360319,-1.165039,-0.205407
560,0.262092,-0.661331,0.408047
561,0.285509,-0.442663,0.431539
562,0.220314,-0.187507,0.202485
563,0.784651,4.642172,-0.017324
564,-0.580436,3.784502,0.936913
565,-1.121643,0.036258,-0.063136
566,-0.860227,0.653484,-0.628362
567,0.193194,0.890166,-0.217013
568,0.154978,1.004656,0.057959
569,0.440481,-0.612617,0.549527
570,0.111449,-1.181177,0.266618
571,-0.184663,-1.533987,0.257098
572,-0.156917,-1.141668,0.241899
573,-0.34362,-1.133296,0.368972
574,-0.20542,-1.159388,0.828607
575,-0.102303,-0.877991,0.844434
576,-0.047164,-0.71558,0.75061
577,-0.252788,0.371915,0.441825
578,-0.312187,1.276587,-1.298226
579,-0.750311,3.33778,-0.155935
580,0.980272,0.381043,1.572607
581,0.738611,-1.101431,0.238479
582,0.843404,-1.053996,-0.164718
583,0.873091,0.107673,0.072988
584,1.242758,1.507415,0.070937
585,0.377496,1.479721,0.109348
586,-0.150912,0.213608,-0.212431
587,-0.231771,0.195304,-0.164949
588,-0.169133,0.07476,-0.325738
589,-0.061507,-0.395246,0.074463
590,0.14664,-0.871155,0.325006
591,0.094808,-1.052311,-0.08512
592,0.313528,-0.964312,0.199711
593,0.600893,-0.831442,0.260513
594,0.889172,-0.633368,0.648286
595,0.652512,-0.073996,0.303601
596,1.131117,1.405106,-0.630709
597,1.683043,4.601323,-0.261389
598,-0.780782,0.201343,0.743406
599,-0.816577,1.1079,-0.243874
600,-0.200831,1.142795,-0.30344
601,0.40132,0.862618,0.061925
602,0.261715,0.219688,0.255373
603,-0.076339,-0.550325,0.26501
604,0.027014,-1.031308,0.341964
605,0.013546,-1.116473,0.430165
606,-0.226377,-1.046757,0.267253
607,-0.131321,-0.910601,0.421706
608,-0.044643,-0.787055,0.652858
609,0.065457,-0.610264,1.126482
610,0.103755,-0.223225,0.869165
611,-0.343663,-0.002996,-0.088884
612,-0.248044,0.640831,0.082648
613,-0.13403,2.268219,0.865873
614,1.630146,0.108298,-0.421326
615,1.229678,0.6064,-0.723912
616,0.826075,0.744826,-0.14003
617,0.415847,0.338754,-0.391566
618,0.559233,0.53646,-0.087084
619,0.741463,0.532103,-0.030905
620,0.445701,0.001423,0.013213
621,0.311065,-0.171076,-0.049835
622,0.269428,-0.459963,0.153731
623,0.345621,-0.783507,0.115199
624,0.356758,-0.887683,-0.110709
625,0.396852,-0.94307,-0.058733
626,0.580271,-0.816255,0.242749
627,0.651256,-0.761697,0.483551
628,0.420032,0.140827,0.209939
629,0.90928,2.04556,-0.746209
630,1.456622,4.320339,0.196955
631,-0.410143,0.242299,0.364328
632,-0.012728,1.204449,-0.408498
633,0.564923,1.240292,-0.494859
634,0.537807,1.085339,-0.368695
635,0.303488,0.558601,-0.158431
636,-0.043519,-0.102212,-0.098552
637,0.196086,-0.71885,0.175672
638,0.293593,-1.411321,0.242847
639,0.233161,-1.267795,0.215757
640,0.12961,-1.130692,0.181832
641,0.156681,-0.994059,0.283769
642,0.097921,-1.051016,0.291831
643,-0.00473,-1.13159,0.721751
644,-0.187247,-1.165359,1.029798
645,-0.345797,-1.248765,0.712428
646,-0.082585,1.067718,0.565053
647,0.385013,6.915709,1.116135
648,1.466734,-0.177674,-0.209858
649,0.737044,-1.927843,-0.429386
650,0.469877,-0.040621,-0.317105
651,0.938123,1.273073,-0.289699
652,0.986493,1.693565,-0.170793
653,0.77309,0.631055,-0.292489
654,0.83793,0.371972,-0.216426
655,0.567005,0.107202,-0.440709
656,0.400189,-0.013444,-0.140259
657,0.423682,-0.373103,0.122279
658,0.423608,-0.816557,-0.369916
659,0.513419,-0.940445,-0.222357
660,0.670413,-0.698252,0.236161
661,0.656606,-0.145698,0.038797
662,0.872475,0.788124,-0.175325
663,1.185309,1.58803,-0.160908
664,0.192932,1.333074,0.673699
665,-0.347238,1.009412,-0.022796
666,0.034294,1.043972,-0.416195
667,0.089087,0.976069,-0.334406
668,0.281066,0.781998,0.062427
669,0.149741,0.464184,0.083789
670,-0.198153,-0.672846,0.017827
671,-0.292476,-1.720461,-0.13089
672,-0.070765,-1.571655,-0.117295
673,0.116328,-0.994446,0.046014
674,-0.104799,-0.854952,0.289282
675,0.013407,-0.949977,0.341271
676,-0.036497,-1.091123,0.504018
677,-0.316094,-1.077543,1.061938
678,-0.256385,-1.013355,-0.335578
679,-0.026545,-0.301844,1.088443
680,0.079286,2.785555,0.916952
681,1.870465,6.182003,0.380591
682,1.114309,-0.674668,-0.324862
683,0.731549,-1.423609,0.262171
684,0.605184,0.177158,0.135832
685,0.749352,1.301913,-0.41582
686,0.405393,1.376051,0.05617
687,0.190806,0.511835,-0.607785
688,0.397672,0.272977,-0.541755
689,0.21476,0.311174,-0.721417
690,0.483755,-0.168427,-0.324845
691,0.449744,-0.74919,-0.219584
692,0.617301,-1.317661,-0.540015
693,0.702855,-0.84682,-0.508453
694,0.570874,-0.585093,-0.001403
695,0.447651,0.1436,-0.042554
696,0.623034,0.65438,-0.195823
697,1.111277,2.057601,-0.348148
698,-0.517615,1.921975,0.928219
699,-1.02818,0.762835,-0.092578
700,-0.033961,0.894635,-0.271259
701,0.099561,0.872299,-0.040336
702,0.454503,0.673759,0.002749
703,-0.0523,-0.244528,-0.060478
704,-0.226939,-1.71808,-0.272913
705,-0.198232,-1.741991,0.006024
706,-0.354805,-1.355776,0.417971
707,-0.270761,-1.2165,0.593858
708,-0.157392,-1.121226,0.613571
709,-0.246808,-0.983226,0.414057
710,-0.486875,-1.081372,0.470748
711,-0.583356,-0.838128,0.983897
712,-0.144897,-0.373042,1.504644
713,-0.587208,2.960079,0.62797
714,1.072547,6.54629,0.792339
715,1.203147,-0.810316,-0.631539
716,0.703853,-1.38761,0.203966
717,0.60877,0.199935,0.14982
718,0.900524,1.438172,-0.497722
719,0.421615,1.264168,0.006179
720,0.045664,0.345598,-0.776781
721,0.162131,0.228092,-0.929072
722,0.030165,0.400748,-0.777012
723,0.463677,-0.317915,-0.065519
724,0.615901,-1.020871,-0.114433
725,0.705707,-1.431709,-0.692809
726,0.637754,-1.084355,-0.89186
727,0.362614,-0.488911,0.020124
728,-0.016115,0.07175,-0.080617
729,0.528713,1.303603,-0.592139
730,0.90176,3.890069,0.616595
731,-0.438206,1.324216,0.866182
732,-0.790784,0.890159,0.181455
733,0.131643,1.345039,-0.570967
734,0.2257,0.807558,0.018166
735,0.088296,0.336765,0.080907
736,-0.244921,-1.293445,0.069275
737,-0.199096,-1.65978,0.281763
738,-0.626524,-1.678438,0.168102
739,-0.607373,-1.556029,0.467474
740,-0.511068,-1.623541,0.799756
741,-0.176429,-1.237831,0.850942
742,-0.287797,-0.934141,0.534286
743,-0.144215,-0.711424,0.079158
744,-0.16109,-0.783726,0.710996
745,-0.800735,-0.613336,0.434964
746,-0.306953,0.211094,1.195285
747,-0.851582,2.863987,0.695592
748,1.542184,0.897873,0.134061
749,1.05695,-1.385675,-0.10111
750,0.816029,-0.977538,0.315023
751,0.891639,0.859097,-0.174321
752,0.37144,1.655546,0.023531
753,0.410648,1.673413,-0.072986
754,0.160644,0.474357,-1.032795
755,0.023414,0.441384,-0.86945
756,0.339136,0.107307,-0.538644
757,0.749686,-1.10414,-0.243842
758,0.847396,-1.393465,-0.714402
759,0.7176,-0.998012,-0.911835
760,0.39063,-0.552317,0.166629
761,-0.061161,0.179679,-0.265249
762,0.669291,2.288316,-0.724515
763,0.427749,3.665669,0.835546
764,-1.086645,0.760442,0.586422
765,-1.133028,0.961238,-0.49493
766,-0.235294,1.100322,-0.397445
767,-0.097223,1.068109,-0.01387
768,0.168378,0.423459,0.201193
769,-0.112419,-1.546064,0.117228
770,-0.096635,-1.757332,0.1663
771,-0.51152,-1.556611,0.2241
772,-0.580895,-1.609795,0.613527
773,-0.420486,-1.52245,0.919032
774,-0.276672,-1.101264,0.779358
775,-0.281625,-0.948456,0.438604
776,-0.273897,-0.687057,0.428889
777,-0.62823,-0.385987,0.652584
778,-0.652953,0.041323,-0.202612
779,-1.429637,2.555007,0.463507
780,-0.132486,4.403303,0.104895
781,1.66296,-0.102657,-0.098226
782,0.923664,-0.216021,0.336405
783,0.943535,0.348904,-0.099446
784,1.081339,1.591457,-0.626808
785,0.048022,0.836195,-0.260904
786,-0.260904,0.381671,-0.724825
787,-0.358656,0.297771,-0.923463
788,0.199947,-0.065292,-0.520405
789,0.394703,-0.469792,-0.456919
790,0.881588,-1.344583,-0.195043
791,1.110593,-1.444097,-0.763848
792,0.796907,-0.664892,-0.74298
793,0.252592,-0.582537,-0.129207
794,0.136681,0.351593,-0.255795
795,0.542342,1.427035,-0.501685
796,-0.514491,2.428706,1.180149
797,-1.284867,0.492041,-0.193578
798,-1.244873,0.811561,-0.501462
799,-0.100666,1.260201,-0.399729
800,0.340083,1.133121,0.316168
801,0.316103,0.679321,0.376668
802,0.002125,-1.823028,0.466169
803,-0.212819,-1.661048,0.639651
804,-0.424336,-1.493483,0.482974
805,-0.602724,-1.858158,0.847578
806,-0.290347,-1.328119,0.869869
807,-0.21442,-1.074586,0.704017
808,-0.401907,-0.899132,-0.003352
809,-0.625291,-0.555142,1.042621
810,-0.989157,-0.181786,-0.076864
811,-1.506417,1.399996,0.984975
812,1.431607,4.613448,0.118772
813,2.153706,1.561936,0.563927
814,1.474532,-1.051022,0.412378
815,1.135913,-0.365504,0.078663
816,1.120334,0.616296,-0.140517
817,0.278576,1.525277,-0.14165
818,-0.163982,-0.005451,-0.921018
819,-0.004992,0.010924,-0.777103
820,-0.221175,0.429955,-0.507016
821,0.109926,-0.354525,-0.167145
822,0.265782,-0.716926,-0.14461
823,0.935227,-1.655958,-0.760918
824,0.582784,-0.384194,-0.881385
825,0.527157,-0.403744,-0.805474
826,0.125775,-0.488296,0.088265
827,0.420056,1.379783,-0.363531
828,0.41646,1.393112,-0.201572
829,0.259042,2.843936,1.090983
830,-1.254477,0.468184,-0.775943
831,-0.845457,0.864851,-0.722198
832,-0.218888,1.298827,-0.302336
833,0.080974,1.103174,0.20569
834,0.091601,-0.397191,0.29796
835,-0.131129,-2.368072,0.348434
836,-0.374103,-1.654511,0.457885
837,-0.625712,-1.461247,0.345986
838,-0.327272,-1.684883,0.882269
839,-0.235625,-1.105166,0.823753
840,-0.26329,-0.898996,0.601395
841,-0.163393,-0.261198,0.515044
842,-0.654942,0.075774,-0.444391
843,-0.722432,0.101728,-0.505412
844,-0.407435,3.43406,0.308009
845,0.98822,3.661876,0.239639
846,1.944511,1.335539,0.489876
847,1.18206,-1.084361,0.46679
848,0.914856,0.012852,0.105997
849,1.122124,1.073,-0.037225
850,0.103462,0.851973,-0.154671
851,-0.476787,0.057126,-0.757825
852,-0.466801,0.139301,-0.704807
853,-0.444076,0.469084,-0.338353
854,0.202141,-0.401352,-0.13032
855,0.458778,-0.744183,-0.199651
856,1.03185,-1.327802,-0.871156
857,0.682345,-0.402991,-0.717581
858,0.497136,-0.460928,-0.475021
859,0.188498,-0.353364,0.027277
860,0.428665,0.526552,0.085496
861,0.957075,2.059877,-0.095852
862,-0.232519,2.361432,1.072447
863,-1.288653,0.739409,-0.856253
864,-0.686922,0.821891,-0.639237
865,-0.328191,0.979464,-0.16484
866,0.088082,0.247241,0.171935
867,0.051276,0.243364,0.157935
868,0.018204,-2.079597,0.169684
869,-0.44312,-1.568369,0.432184
870,-0.412879,-1.581389,0.417355
871,-0.619432,-1.975083,0.930803
872,-0.323028,-0.906629,0.671792
873,-0.354254,-0.922386,0.623293
874,-0.293006,-0.410948,-0.019874
875,-0.33024,-0.136992,0.669952
876,-0.522435,-0.101152,0.749046
877,-0.77019,4.521765,0.18152
878,0.739953,3.104081,0.701127
879,1.716979,1.123163,0.388958
880,1.207266,-0.81632,-0.161011
881,0.854539,-0.267621,0.370061
882,1.027605,0.557733,0.018852
883,0.654567,1.798001,-0.283965
884,-0.4592,0.042844,-0.923666
885,-0.321502,-0.025543,-0.967787
886,-0.226502,0.333294,-0.422602
887,0.249486,-0.33421,-0.240385
888,0.451226,-0.740294,-0.117075
889,0.97151,-1.666386,-0.732584
890,0.657813,-0.455645,-0.889553
891,0.346032,-0.399433,-0.51004
892,0.098195,-0.256211,-0.115534
893,0.322429,0.601977,-0.183655
894,0.927136,2.562975,-0.29172
895,-0.63385,1.941347,0.795466
896,-1.126529,0.789237,-0.055789
897,-1.02691,1.067556,-0.891469
898,-0.127618,1.238501,-0.343969
899,0.323945,0.959497,0.345541
900,0.338791,0.060528,0.181657
901,-0.047757,-2.186154,0.208071
902,-0.376791,-1.599721,0.340249
903,-0.680409,-1.562941,0.344005
904,-0.471707,-1.805205,0.790583
905,-0.223782,-1.23329,0.90018
906,-0.240992,-0.954794,0.818812
907,-0.144353,-0.412821,-0.065403
908,-0.217006,-0.274151,0.594223
909,-0.730453,-0.188761,0.174576
910,-1.348459,1.683243,0.243487
911,0.440466,3.777182,0.544064
912,1.598186,1.459591,0.495597
913,1.35057,-0.743691,-0.195442
914,0.739786,-0.127033,0.350616
915,0.798826,-0.138722,0.257136
916,0.574369,1.775659,-0.221833
917,-0.43837,0.033848,-0.917319
918,-0.398186,0.052048,-0.989311
919,-0.560232,0.363457,-0.643619
920,0.301441,-0.474834,-0.104186
921,0.514555,-0.887133,-0.111283
922,0.898305,-1.357508,-0.651009
923,0.552655,-0.52689,-0.703041
924,0.508021,-0.544324,-0.634158
925,0.236468,-0.646367,-0.040772
926,0.214155,0.260542,-0.047671
927,0.691698,1.716985,-0.476475
928,-0.027139,2.100754,1.001076
929,-1.174505,0.351953,-0.651826
930,-1.075096,0.784488,-0.712895
931,-0.176708,1.382375,-0.469426
932,0.167969,0.44187,-0.081187
933,0.051431,0.109009,0.076089
934,-0.117199,-2.439851,0.189618
935,-0.387276,-1.592553,0.441861
936,-0.578471,-1.570065,0.50696
937,-0.443992,-1.509247,0.861988
938,-0.234489,-1.124165,0.902504
939,-0.292797,-0.921132,0.794214
940,-0.362619,-0.612032,-0.057152
941,-0.123672,-0.495149,0.168042
942,-0.584281,-0.358484,0.591245
943,-0.805295,1.070659,0.389403
944,-0.121417,5.339898,-0.300786
945,1.06307,1.809806,1.012657
946,1.153652,-0.893311,-0.45861
947,0.969282,-1.069075,0.498192
948,0.864828,-0.590284,0.516183
949,0.893444,1.592358,-0.296432
950,0.150208,1.407382,-0.101029
951,-0.489709,0.656731,-0.910116
952,-0.664331,0.382443,-0.834375
953,-0.003161,0.106264,-0.185719
954,0.287935,-0.249152,-0.185132
955,0.854367,-1.541324,-0.47445
956,0.744741,-0.681231,-0.822363
957,0.450494,-0.498333,-0.575082
958,0.23725,-0.657772,-0.199606
959,0.202849,-0.552625,0.272125
960,0.178653,0.452536,-0.051465
961,1.710289,5.578861,-0.116564
962,-0.382202,2.095986,1.124006
963,-1.333477,0.410774,0.057236
964,-0.482189,1.043034,-0.671305
965,-0.105537,1.154812,-0.219769
966,0.145347,1.145296,0.087664
967,-0.05307,-1.329973,0.14318
968,-0.258974,-1.898452,0.381646
969,-0.527656,-1.723372,0.406163
970,-0.654735,-1.811567,0.868019
971,-0.29388,-1.294709,0.959386
972,-0.473471,-1.06875,0.64852
973,-0.451756,-0.603418,0.030705
974,-0.034087,-0.213436,0.004251
975,-0.309372,-0.411422,1.02207
976,-1.241491,-0.15786,-0.686117
977,-1.54169,5.742203,0.605302
978,-0.097288,3.946486,0.50764
979,1.664065,0.028547,-0.060886
980,1.354641,-0.668389,-0.21534
981,1.262307,-0.595458,0.229385
982,0.76205,0.875358,-0.255377
983,-0.104304,1.821878,0.006421
984,-0.733502,1.137276,-0.37558
985,-0.698314,0.304096,-1.166828
986,-0.036499,0.12237,-0.427942
987,0.324163,-0.180673,-0.303944
988,0.777578,-1.50482,-0.219218
989,1.061328,-1.569348,-0.808439
990,0.880448,-0.995148,-0.954033
991,0.16833,-0.616442,-0.446518
992,0.207344,-0.71212,0.133882
993,0.123941,-0.411374,0.293213
994,1.873173,5.574275,-0.853495
995,0.203782,2.604729,1.295121
996,-0.96241,0.380818,0.6043
997,-0.626491,1.289118,-0.687107
998,-0.229947,1.460688,-0.164328
999,0.094084,1.425357,-0.102204
1000,0.034611,-1.231452,0.329237
1001,-0.203648,-1.982304,0.495711
1002,-0.189276,-2.012006,0.458644
1003,-0.585723,-1.718388,0.677077
1004,-0.324292,-1.363211,0.970401
1005,-0.330227,-1.38214,0.935826
1006,-0.454409,-0.600108,0.436803
1007,-0.206106,-0.390186,-0.121445
1008,-0.360947,-0.517764,0.629183
1009,-1.132598,-0.125785,-0.62815
1010,-1.42516,3.906277,0.520981
1011,-0.103767,5.267148,-0.037355
1012,1.700357,0.693872,0.370914
1013,1.137092,-0.918308,0.130849
1014,1.120511,-0.783307,0.488077
1015,1.043978,0.252822,0.156462
1016,0.617226,1.737875,0.182374
1017,0.18513,1.116339,-0.119337
1018,-0.304842,-0.087462,-1.069548
1019,-0.477547,0.37364,-0.601088
1020,-0.223233,0.162534,-0.311311
1021,0.790925,-1.370706,-0.235582
1022,0.907615,-1.682305,-0.457565
1023,0.983374,-1.458474,-0.680155
1024,0.287349,-0.570312,-0.515087
1025,0.189985,-0.677013,-0.03834
1026,-0.12438,-0.279143,-0.017185
1027,0.31983,0.747912,-0.225903
1028,0.480606,4.979115,0.235594
1029,-0.057685,3.719185,0.798914
1030,-0.707454,0.469563,-0.555807
1031,-0.08577,1.22945,-0.436848
1032,-0.177271,1.494552,-0.425168
1033,0.124164,0.433602,0.113973
1034,-0.124579,-2.184888,0.204282
1035,-0.189988,-2.398631,0.04235
1036,-0.484261,-1.551188,0.362556
1037,-0.529453,-1.716298,0.783203
1038,-0.5662,-1.785683,0.885197
1039,-0.317778,-0.881519,0.956455
1040,-0.39485,-0.653731,0.444913
1041,-0.297274,-0.43856,-0.0444
1042,-0.304293,-0.606559,0.683717
1043,-1.064014,-0.088857,-1.625708
1044,-1.373309,1.485693,0.625766
1045,-0.372595,3.989694,0.001485
1046,2.01938,0.699101,0.520986
1047,1.585442,-0.648947,-0.668707
1048,1.101813,-0.483479,0.157534
1049,0.922931,0.176499,0.1918
1050,0.99053,0.170604,0.099258
1051,0.070523,1.312831,0.111078
1052,-0.860129,0.277531,-0.897853
1053,-0.8194,0.293492,-0.950707
1054,-0.280157,0.313711,-0.328873
1055,0.548686,-0.867816,-0.300614
1056,0.569094,-0.871545,-0.285044
1057,1.047116,-0.864641,-0.736461
1058,0.602093,-0.49248,-0.682533
1059,0.362954,-0.496098,-0.512969
1060,0.133704,-0.217042,0.359757
1061,0.729553,2.285883,-0.543884
1062,1.754556,5.111722,-0.033079
1063,-1.27279,0.627579,0.049899
1064,-1.488552,1.150462,-0.973568
1065,-0.591958,1.379872,-0.822182
1066,-0.189483,1.351444,-0.412988
1067,0.463528,0.730045,0.340073
1068,0.153828,-1.062335,0.542374
1069,-0.3674,-1.834584,0.29867
1070,-0.586893,-1.566559,0.12757
1071,-0.579871,-1.551451,0.436554
1072,-0.595248,-1.304792,0.905292
1073,-0.343555,-0.795661,0.7389
1074,-0.408417,-0.721977,0.655712
1075,-0.199271,-0.651378,0.06979
1076,-0.348633,-1.032591,1.058423
1077,-0.829806,-0.874433,1.679222
1078,-1.506765,2.401986,0.865309
1079,0.437523,5.180533,0.353213
1080,2.136889,1.755636,0.936657
1081,1.546822,-0.921703,-0.225985
1082,1.231363,-0.791147,0.503304
1083,0.997917,-0.411223,0.21319
1084,0.504084,1.350844,-0.2149
1085,0.175042,1.289318,-0.071387
1086,-0.212357,0.183796,-1.112253
1087,-0.916584,0.329478,-0.789977
1088,-0.087355,-0.024722,-0.178336
1089,0.437602,-0.689078,-0.02803
1090,0.751616,-1.606842,-0.314648
1091,0.551485,-0.731839,-0.66772
1092,0.504839,-0.745048,-0.605277
1093,0.086943,-0.670313,-0.309921
1094,-0.052509,-0.265884,0.170128
1095,0.104317,0.206433,0.024722
1096,1.419264,4.307663,-0.77457
1097,0.225028,2.778129,0.861808
1098,-1.022993,0.22375,-0.713854
1099,0.103747,1.621959,-0.573734
1100,0.028984,1.800022,-0.373441
1101,0.213623,0.61077,0.044197
1102,-0.480332,-2.675112,0.240327
1103,-0.348857,-1.699671,0.335707
1104,-0.480232,-1.503606,0.360914
1105,-0.490409,-1.514055,0.719587
1106,-0.346986,-1.312315,0.803649
1107,-0.325465,-1.062395,0.868494
1108,-0.4967,-0.764402,0.357791
1109,-0.313867,-0.483875,0.175274
1110,-0.291613,-0.478809,0.276924
1111,-1.043527,-0.344578,0.165735
1112,-0.989471,2.590075,0.871374
1113,-0.966309,5.699004,0.727901
1114,1.705653,0.161108,0.29463
1115,1.128105,-0.793289,-0.603762
1116,0.994092,-0.949987,-0.256994
1117,0.618933,-0.071098,0.405453
1118,0.546321,1.174163,-0.242726
1119,0.528673,1.516793,-0.035317
1120,-0.456602,0.231745,-0.881414
1121,-0.725892,0.207715,-0.970993
1122,-0.605094,0.424248,-0.739489
1123,0.296547,-0.521313,-0.02435
1124,0.529482,-1.276545,-0.299606
1125,0.622025,-1.607686,-0.395387
1126,0.491145,-0.680659,-0.768879
1127,0.202538,-0.609165,-0.356163
1128,0.181514,-0.478061,0.163687
1129,0.010962,0.076489,-0.091528
1130,1.152146,3.439851,-0.651004
1131,1.078462,5.382179,0.505635
1132,-1.18461,0.20377,-0.437145
1133,-0.326266,1.214185,-0.451343
1134,-0.359292,1.249722,-0.400415
1135,0.157331,1.023668,-0.006681
1136,0.222332,-1.103474,0.167065
1137,0.104297,-2.124897,0.106031
1138,-0.079711,-1.829888,0.149989
1139,-0.580987,-1.660028,0.694871
1140,-0.540587,-1.676134,0.679678
1141,-0.38282,-1.477218,0.86257
1142,-0.484127,-0.706978,0.458503
1143,-0.519657,-0.71426,0.426176
1144,-0.18794,-0.448683,0.431748
1145,-0.910315,-0.527765,1.473861
1146,-1.239199,-0.382146,0.081949
