,userAcceleration.x,userAcceleration.y,userAcceleration.z
0,-0.434865,0.963793,1.220135
1,-0.36681,0.962289,1.181086
2,-0.195891,1.78624,0.672827
3,0.887438,1.40046,-0.643609
4,-0.470073,1.236409,-1.133188
5,-0.701911,0.825765,-1.313624
6,-0.975766,-0.508746,-0.73478
7,-0.03652,-0.779349,-0.628584
8,0.360446,-1.043146,-0.358545
9,0.509027,-0.932822,-0.699118
10,0.503969,-0.935044,-0.694144
11,0.184409,-0.528814,-1.129676
12,-0.606035,-0.955766,-0.706216
13,-0.69481,-0.521821,-0.045198
14,-0.53244,-0.250214,-0.11557
15,0.24931,1.234095,0.257238
16,0.546851,2.260251,0.380784
17,-0.019934,2.324997,0.292902
18,-1.41773,1.932224,0.265312
19,-0.635082,1.631399,0.047182
20,0.842286,0.862706,0.500948
21,0.796202,0.677617,0.605096
22,0.155917,0.027716,0.866655
23,-0.535587,-1.047442,1.071274
24,-0.20453,-1.700317,1.054861
25,0.003222,-1.64153,1.056133
26,0.157541,-1.701519,0.99202
27,0.451491,-1.382203,0.822983
28,0.064375,-0.965253,0.510837
29,0.348591,0.14554,-0.991133
30,0.19842,0.997296,-1.906126
31,0.264848,0.330467,-2.298526
32,0.064295,-1.400922,3.917205
33,-0.839412,0.681462,1.177769
34,-0.062226,-0.23298,0.853271
35,-0.559136,0.067216,1.282094
36,-0.769108,0.7896,1.235447
37,-0.480839,1.222054,1.142202
38,0.261736,2.501069,-0.211481
39,0.425691,1.548667,-0.757009
40,-0.041286,1.288799,-0.802947
41,-1.172263,0.068882,-1.101814
42,-1.057435,-0.599279,-0.7499
43,-0.233409,-0.578511,-0.651183
44,0.601035,-0.789272,-0.444649
45,0.633351,-0.980333,-0.974728
46,0.452318,-0.766998,-0.984506
47,0.264555,-0.573354,-0.937346
48,-0.556689,-0.905455,-0.64896
49,-0.496324,-0.32387,-0.4461
50,-0.319269,-0.115728,-0.309513
51,0.82974,2.774563,0.371048
52,0.192908,2.771592,0.794765
53,-0.367381,2.392844,0.798755
54,-0.873342,1.913632,0.548982
55,0.608303,1.488976,0.29645
56,0.921685,1.421933,0.698801
57,0.363064,0.609869,0.794389
58,-0.792469,-1.380362,1.286476
59,-0.866668,-1.978977,1.289242
60,-0.255616,-1.915689,1.191156
61,0.049666,-1.64252,1.22924
62,0.200623,-1.6415,1.153474
63,0.169116,-1.699287,0.94317
64,-0.245163,-1.109419,-0.200734
65,0.589805,0.634585,-1.416618
66,0.92097,1.14002,-0.914868
67,0.731867,-0.122479,-0.717204
68,0.072352,-1.201977,3.468791
69,-2.231674,2.268264,-0.986941
70,-0.664339,0.096679,1.321677
71,-0.701997,-0.172285,1.249551
72,-0.725603,0.756829,1.218666
73,-0.165731,2.415372,0.879687
74,1.573292,2.285693,-0.321588
75,0.437022,1.608518,-0.975681
76,-0.596838,1.073521,-1.377915
77,-1.273163,0.323558,-1.38222
78,-0.163202,-0.625732,-0.800169
79,0.43851,-0.706336,-0.760288
80,0.636313,-0.85433,-0.324064
81,0.336934,-0.982297,-0.383018
82,0.310704,-0.961334,-0.588201
83,0.097971,-0.498001,-2.047784
84,-0.754798,-0.772529,-0.029022
85,-0.68574,-0.57717,0.061235
86,0.102546,0.790752,0.17957
87,0.883457,2.900359,0.335152
88,0.64479,2.287219,0.415594
89,-0.732444,2.104268,0.651832
90,-1.147491,1.826219,0.368949
91,0.374762,1.399937,-0.000586
92,1.183054,0.667283,0.466904
93,0.156082,-0.027593,0.999336
94,-0.826714,-1.014236,1.434418
95,-0.832563,-1.383666,1.50435
96,-0.025073,-1.662737,1.160829
97,0.071677,-1.519625,1.101054
98,0.124302,-1.549605,0.972915
99,0.183076,-1.481681,0.68627
100,0.478595,0.196943,-1.499791
101,0.722416,0.939648,-1.661482
102,0.648462,0.511327,-1.347154
103,-0.252273,-0.323126,3.136779
104,-1.923633,2.55403,-1.570787
105,-0.040635,-0.415941,1.322082
106,-0.370431,-0.353673,1.505788
107,-0.524433,0.102957,1.596699
108,-0.79591,2.007061,1.561008
109,0.691585,2.622687,-0.586496
110,0.91116,1.856913,-1.276598
111,-0.285097,0.996638,-0.880444
112,-0.600665,0.342195,-1.143596
113,-0.875623,-0.521348,-0.86272
114,-0.525793,-0.802896,-0.872658
115,0.566019,-1.163114,-0.354774
116,0.618351,-1.004274,-0.220627
117,0.319339,-0.799653,-0.417108
118,0.565286,-0.624875,-1.592878
119,-0.614709,-0.853403,-1.321803
120,-0.485139,-0.537532,-0.180111
121,-0.254626,-0.205074,0.263503
122,0.297038,0.874588,0.32127
123,-0.068966,2.666433,0.014927
124,-0.543153,1.840486,0.406121
125,-1.091383,2.092709,0.715018
126,0.439334,1.366588,0.107583
127,0.701194,1.108743,0.497113
128,0.933372,0.773954,0.701542
129,-0.34599,-0.344161,1.413447
130,-0.636089,-0.912272,1.399085
131,-0.573093,-1.745953,1.31548
132,0.107515,-1.73091,1.138014
133,0.166196,-1.791906,1.082711
134,0.455222,-1.871954,1.084747
135,0.230351,-0.831262,0.021774
136,0.236469,-0.04209,-1.503646
137,0.623084,1.562589,-2.133331
138,0.388571,0.100574,-0.482668
139,-0.094972,0.786894,3.853258
140,-0.147475,-1.853737,1.725184
141,-0.32531,-0.638619,2.518729
142,-0.736957,0.559213,1.473847
143,-1.020719,2.524792,1.158255
144,1.254089,2.922846,-0.174847
145,1.060158,1.927246,-0.754024
146,0.106281,1.255104,-0.753262
147,-1.232141,0.233133,-1.163016
148,-1.417451,-0.086748,-1.164482
149,-0.756024,-0.561663,-0.809821
150,0.215721,-0.975236,-0.64614
151,0.454728,-0.993069,-0.401626
152,0.368876,-0.912265,-0.766275
153,0.45436,-0.698823,-1.430673
154,-0.487968,-0.898074,-0.706229
155,-0.395672,-0.772404,0.28354
156,-0.373583,-0.438153,-0.267018
157,0.057088,0.424023,0.038096
158,0.587435,2.873665,0.455709
159,-0.18654,2.462178,0.592922
160,-1.434947,2.133034,0.339091
161,-0.074241,1.679405,0.02319
162,0.935425,1.329885,0.391616
163,0.772257,0.803197,0.558145
164,0.245097,0.11311,0.912558
165,-0.751565,-1.40137,1.21471
166,-0.583361,-1.277849,1.337504
167,-0.139844,-1.505221,1.134898
168,0.047917,-1.512883,0.977759
169,0.201117,-1.660709,0.944205
170,0.161996,-1.577559,0.706316
171,0.949415,0.80094,-1.785869
172,0.380203,0.7117,-1.037445
173,-0.088843,-0.666308,-0.555088
174,-0.148758,-2.030594,3.049969
175,-0.816655,-1.87884,3.326102
176,-1.968601,6.719563,-5.635
177,-0.115759,-1.245127,1.374764
178,-0.130506,-0.914586,1.572057
179,-0.177706,2.467619,2.080353
180,0.947203,2.062888,-1.268102
181,1.113491,1.933864,-1.221393
182,-0.214039,1.366704,-1.133215
183,-0.930855,0.315112,-0.827526
184,-1.028736,-0.026959,-0.871932
185,-0.842885,-0.899863,-1.080956
186,0.434896,-0.82923,-0.477518
187,0.245232,-0.976546,-0.369386
188,0.268082,-0.974651,-0.579124
189,0.325027,-0.600912,-1.788044
190,-0.576305,-1.028919,-0.238145
191,-0.702125,-0.551382,0.041113
192,-0.93895,-0.226914,-0.353833
193,-0.113174,0.969857,0.259847
194,0.714566,4.503753,0.890916
195,-0.077121,2.296729,0.956872
196,-1.382879,1.166521,0.500753
197,-0.057944,0.971913,-0.064613
198,0.730986,0.898459,0.301252
199,0.672639,0.469569,0.730629
200,0.018874,-0.098885,0.932886
201,-0.262753,-0.691068,1.262016
202,-0.119319,-1.468184,1.321494
203,-0.198029,-1.479045,1.202664
204,-0.160048,-1.495407,1.115984
205,0.09643,-1.234895,0.683427
206,0.368175,-0.519556,-0.20827
207,0.864904,0.764641,-1.517091
208,0.403165,0.092698,-1.310866
209,0.648823,-0.300268,1.214538
210,-1.692032,0.11126,1.777253
211,-1.338686,-0.342449,0.136565
212,-1.169669,0.017084,1.753493
213,-0.926243,0.808573,0.373325
214,-0.410566,1.353263,0.784988
215,1.739426,3.485734,-0.349492
216,1.928764,1.63336,-0.679418
217,0.426169,1.121994,-0.597279
218,-0.663289,0.507384,-1.025906
219,-1.309537,-0.236026,-0.804047
220,-1.280948,-0.524121,-0.755969
221,0.184547,-0.862828,-0.52606
222,0.365064,-0.926822,-0.054393
223,0.236584,-1.041808,-0.10336
224,0.584602,-0.953327,-1.548408
225,-0.376076,-0.992678,-0.45763
226,-0.414767,-1.098419,0.502221
227,-0.725467,-0.434755,-0.362
228,0.170357,1.522128,0.213497
229,0.290491,2.267835,0.300154
230,0.022522,2.210757,0.442012
231,-1.177609,2.101409,0.479914
232,0.0723,1.608093,-0.062964
233,0.600717,1.426694,-0.04621
234,0.589509,0.782073,0.459673
235,0.471837,0.239086,0.849966
236,-0.297947,-0.541357,1.172285
237,-0.65822,-1.350616,1.155687
238,-0.400577,-1.546302,0.960002
239,0.000775,-1.409272,0.789909
240,0.29548,-1.57359,0.700491
241,0.290252,-1.27848,0.513965
242,0.229656,-0.463686,-0.846439
243,0.404633,0.507891,-1.514809
244,0.382504,0.049591,-1.171808
245,0.469644,0.306232,2.886336
246,-2.110753,1.411541,0.192187
247,-0.893613,-1.006902,1.038077
248,-0.723798,0.046355,1.826345
249,-0.963899,1.123222,1.409334
250,0.036338,2.51616,1.77834
251,1.356111,2.09909,-1.329571
252,0.861848,1.334638,-0.742059
253,-0.08962,0.911433,-1.103628
254,-0.581142,0.352433,-1.045692
255,-0.935469,-0.506263,-1.035721
256,-0.567671,-0.680744,-0.919248
257,0.100327,-0.745977,-0.605382
258,0.211765,-0.92043,-0.299585
259,0.225892,-0.983344,-0.325216
260,0.548483,-0.993724,-0.767408
261,-0.366463,-0.989979,-0.554896
262,-0.424335,-0.876188,-0.053351
263,-0.293772,-0.305984,0.344015
264,-0.017569,2.5152,0.325679
265,-0.235622,2.610393,0.220346
266,-0.895604,1.709597,0.07364
267,-0.63507,1.473426,0.311964
268,0.518032,1.480471,0.366087
269,0.904352,1.169836,0.295128
270,0.309737,0.318465,0.598817
271,-0.409788,-0.445021,0.97371
272,-0.581796,-1.320247,1.200966
273,-0.359055,-1.687277,1.065186
274,-0.299774,-1.581097,0.856754
275,0.004559,-1.690736,0.802805
276,0.430337,-1.029932,0.156578
277,0.859214,0.378193,-2.026708
278,1.081439,0.195415,-0.657929
279,-0.006331,-0.25432,-0.237332
280,0.225238,-0.390601,1.157562
281,-0.991504,2.421495,-0.504126
282,-1.419727,-1.339714,0.990839
283,-0.66328,0.242173,1.867628
284,-0.875131,0.702269,1.354569
285,-0.518623,1.978873,1.178528
286,1.483634,2.610463,-0.050591
287,1.480924,1.714707,-0.434681
288,0.130807,1.226142,-0.370951
289,-0.667987,0.78481,-1.093873
290,-1.155904,0.064609,-1.214432
291,-1.219753,-0.511524,-1.045632
292,-0.072741,-0.760972,-0.770763
293,0.443322,-0.770427,-0.431601
294,0.300436,-0.85939,-0.317465
295,0.228016,-1.008399,-0.450813
296,0.74218,-0.928559,-1.514407
297,-0.430726,-0.969928,-0.434219
298,-0.598856,-0.466056,-0.035378
299,-0.109887,1.950775,0.456953
300,-0.009217,2.335978,0.318962
301,-0.410191,2.048255,0.287015
302,-0.835299,1.98002,0.666785
303,0.522201,1.525159,0.261556
304,0.814069,1.273009,0.30504
305,0.577618,0.867149,0.444526
306,-0.103967,-0.195408,1.147611
307,-0.493905,-0.733897,1.334811
308,-0.678048,-1.647926,1.166388
309,-0.089464,-1.551544,0.980736
310,0.08444,-1.655157,0.911394
311,0.260825,-1.956535,1.033273
312,0.185116,-0.918647,0.40773
313,0.610518,0.539647,-1.669935
314,0.648497,1.392535,-2.203329
315,0.203994,0.214315,-0.386131
316,0.259278,-0.969516,1.749773
317,-1.419688,0.552951,1.176357
318,-0.421433,0.64209,1.010406
319,-0.44393,-0.257214,1.404931
320,-0.455146,-0.045437,1.406689
321,-0.491698,2.256569,1.110393
322,0.450846,2.28246,-0.036515
323,1.38824,1.443148,-0.148509
324,0.128416,1.196004,-0.585089
325,-0.761888,0.812387,-1.133962
326,-1.071665,-0.060625,-0.907259
327,-1.049191,-0.538664,-0.938616
328,0.072313,-0.837068,-0.613085
329,0.286613,-0.810726,-0.376654
330,0.281127,-0.981345,-0.494549
331,0.396472,-1.069644,-0.787722
332,0.296406,-0.784254,-1.08687
333,-0.406018,-0.966323,-0.614777
334,-0.571865,-0.429944,-0.120477
335,-0.4464,-0.026779,0.293792
336,0.21967,1.804016,0.680363
337,-0.108058,2.980793,0.372335
338,-0.965894,1.225475,0.474701
339,-1.183389,1.714922,0.13112
340,0.002586,1.400642,-0.130264
341,0.940492,1.048374,0.464813
342,0.485042,0.395296,0.655519
343,0.036897,0.12387,0.976133
344,-0.599565,-1.225158,1.184451
345,-0.42483,-1.679516,1.055833
346,-0.312893,-1.695319,0.993071
347,-0.085858,-1.703592,0.928791
348,0.409017,-1.61325,0.894364
349,0.615012,-0.658773,0.222403
350,0.721379,0.055132,-0.9489
351,0.350246,0.419881,-1.11471
352,-0.173177,-0.087376,-0.961099
353,-0.365796,1.235711,1.979058
354,-0.474997,-0.703021,0.235514
355,-0.761051,0.345875,1.900661
356,-0.662954,0.197813,1.141983
357,-0.819612,0.811495,1.084352
358,-0.659564,1.730499,1.008659
359,0.792861,2.566329,0.191883
360,0.800582,1.478864,-0.752944
361,0.169045,1.278208,-0.601671
362,-0.680032,0.185509,-1.05583
363,-1.267202,-0.501269,-0.776828
364,-0.744039,-0.788771,-0.788187
365,0.129713,-1.12304,-0.341704
366,0.2705,-0.990239,-0.106395
367,0.072109,-0.972661,-0.293195
368,0.608172,-0.86985,-1.50379
369,-0.460259,-0.677888,-1.734125
370,-0.19004,-0.316467,0.109923
371,-0.214436,0.002697,0.266515
372,-0.210371,0.509125,0.334829
373,0.247718,3.022573,0.323276
374,-0.081752,2.590607,0.339251
375,-1.425145,1.837922,0.540849
376,-0.495721,1.516231,-0.130091
377,0.099017,1.253666,0.086379
378,1.548433,0.928506,0.653989
379,0.497139,0.38387,0.913101
380,-0.464566,-0.686528,1.405553
381,-0.617509,-1.633327,1.362302
382,-0.211268,-1.850875,1.161871
383,-0.08681,-1.902775,1.058667
384,0.386312,-1.871335,1.254507
385,0.166903,-0.967769,0.451992
386,0.559577,0.418701,-1.633693
387,0.392488,0.51109,-1.074354
388,0.372965,-0.242498,-0.061505
389,0.391883,-0.592747,-0.297982
390,-1.104679,2.806912,-0.217608
391,-0.938443,1.65103,0.923423
392,-0.619175,-0.463186,1.343541
393,-0.995897,0.120625,1.378515
394,-1.242315,0.957298,1.125509
395,-0.624881,1.769489,0.808007
396,1.550746,2.061897,-0.573668
397,1.653544,1.786218,-0.948906
398,-0.16441,0.988924,-1.281605
399,-0.515806,0.002842,-0.809854
400,-0.672674,-0.456144,-0.58807
401,-0.65131,-0.812243,-0.698012
402,0.101145,-0.952317,-0.287852
403,0.189965,-0.921936,-0.608177
404,0.48011,-0.667147,-1.353914
405,-0.175173,-0.727445,-0.724061
406,-0.365226,-0.906856,-0.370525
407,-0.336818,-0.522047,-0.19074
408,-0.179537,-0.101372,-0.072029
409,0.270447,1.358698,0.302922
410,0.5748,2.952017,0.479583
411,-0.473025,1.677516,0.733125
412,-1.243151,1.664227,0.110129
413,-0.086056,1.3084,-0.139809
414,0.76227,0.978345,0.289625
415,1.034972,0.881754,0.697555
416,0.093661,0.07119,1.127164
417,-0.705771,-0.909619,1.308803
418,-0.590301,-1.518311,1.270035
419,-0.20852,-1.497852,1.074039
420,-0.076734,-1.553795,0.886029
421,0.186479,-1.753361,0.720967
422,0.650062,-1.193779,0.484941
423,0.50672,-0.046202,-1.152566
424,0.820502,1.038368,-1.228923
425,0.041416,0.357646,-1.437466
426,-0.24673,-1.001426,3.068121
427,-2.867471,3.948267,-3.511343
428,0.32996,-0.981829,1.50537
429,0.101311,-0.483002,1.767354
430,-0.446346,1.034461,1.934479
431,-0.247352,2.126591,1.523363
432,1.05566,1.717112,-0.9263
433,0.675164,1.532202,-0.702507
434,-0.426735,1.130892,-0.419255
435,-0.791651,0.04647,-0.79651
436,-0.866727,-0.363247,-0.884922
437,-0.484302,-0.640436,-0.755405
438,0.295769,-0.88789,-0.19668
439,0.19989,-0.788208,-0.554096
440,0.256636,-0.771838,-0.918957
441,0.233971,-0.719833,-1.158549
442,-0.294734,-0.844212,-0.790652
443,-0.355608,-0.7153,-0.369818
444,-0.096556,0.477465,0.418739
445,0.138839,1.080531,0.796735
446,-0.369261,2.762873,0.211629
447,-0.963776,2.095759,0.230052
448,-0.939918,1.861456,0.325077
449,0.11495,1.42584,0.196367
450,1.722283,1.109085,0.506775
451,0.376561,0.48885,0.726546
452,-0.439505,-0.520689,1.277909
453,-0.613665,-1.337109,1.30723
454,-0.313229,-1.756903,1.22305
455,0.029421,-1.736521,1.155267
456,0.257506,-1.881203,1.126661
457,0.328344,-1.55511,0.962568
458,0.191173,-0.754301,-0.198094
459,0.64162,0.817845,-2.110898
460,0.249938,0.396454,-0.803212
461,0.379716,-0.539576,0.024635
462,0.053543,-1.685839,3.361855
463,-3.402263,5.936848,-5.173383
464,0.06643,-0.252246,1.846109
465,0.238355,-1.088471,1.290933
466,0.056523,0.799132,2.099565
467,-0.33153,2.270407,1.518033
468,0.645937,1.594767,0.163283
469,0.77747,1.259633,-0.913986
470,-0.588655,1.143763,-0.755457
471,-0.711919,0.720698,-0.700822
472,-1.114436,-0.117446,-1.014781
473,-0.411924,-0.602605,-0.893018
474,0.586662,-1.036085,-0.280348
475,0.545293,-1.045044,-0.242997
476,0.374878,-0.988799,-0.789636
477,-0.173726,-0.540204,-1.1214
478,-0.674853,-0.890354,-0.856973
479,-0.804162,-0.568312,-0.29958
480,-0.352931,-0.411582,-0.130298
481,-0.047658,-0.099013,0.029855
482,0.760864,3.107485,0.46142
483,0.145976,2.245398,0.777579
484,-0.501073,1.351375,0.941904
485,-1.746611,1.730243,0.15554
486,0.724672,1.424847,-0.166506
487,1.604413,1.040617,0.466324
488,0.64022,0.39827,0.983572
489,-0.366777,-0.584117,1.311568
490,-0.783918,-1.286415,1.351163
491,-0.518343,-1.385386,1.252828
492,-0.212511,-1.362215,1.159571
493,-0.095815,-1.657947,1.050541
494,0.358286,-1.557884,0.929872
495,0.506793,-0.73593,0.251111
496,0.813488,0.778547,-1.702911
497,0.305454,0.71068,-1.21471
498,-0.080528,0.477393,-0.695934
499,-0.101332,3.474155,0.862684
500,-0.350779,-1.239177,1.040399
501,-0.657661,-1.101652,1.897965
502,-0.872575,0.089329,1.673368
503,-1.293504,1.437354,0.33146
504,-0.070888,1.816692,0.525605
505,1.43583,1.789045,-0.372104
506,1.359844,1.257287,-0.339031
507,0.231316,0.797538,-0.368892
508,-0.369831,0.464866,-0.726709
509,-0.709511,-0.223085,-0.761278
510,-0.742232,-0.611636,-0.632112
511,-0.036824,-0.958035,-0.537776
512,0.289372,-0.918593,-0.362126
513,0.262394,-0.983446,-0.386452
514,0.426124,-0.879591,-0.661325
515,-0.203707,-0.673683,-1.038439
516,-0.550751,-0.85235,-0.344801
517,-0.228984,-0.298555,0.328844
518,0.443217,1.868907,0.507585
519,0.484043,2.882708,0.209102
520,-0.760075,0.824152,0.179843
521,-1.108661,1.737942,0.220235
522,-0.072202,1.400764,0.305853
523,0.531249,1.247112,0.458191
524,1.277918,1.054863,0.56526
525,0.495548,0.661891,0.645574
526,-0.184464,-0.074495,1.00678
527,-0.624451,-1.044954,1.056559
528,-0.429655,-1.379667,1.029279
529,-0.24913,-1.472711,0.936026
530,-0.159319,-1.670281,0.875444
531,0.146049,-1.425683,0.814112
532,0.278089,-0.486358,-0.332691
533,0.614825,0.452746,-1.709483
534,0.499817,0.399035,-1.942963
535,0.382419,-0.791418,1.899806
536,0.36817,-1.57537,3.699952
537,-1.967531,5.443478,-2.746465
538,0.583962,-0.031476,1.714679
539,-0.128617,-0.86405,1.449907
540,-0.132939,-0.790781,1.31704
541,-1.168297,2.646052,1.447883
542,-0.921674,2.347502,1.024642
543,1.011785,1.159885,-0.024468
544,0.690123,0.944133,-0.256015
545,0.023793,0.60468,-0.370741
546,-0.57962,0.159076,-0.681383
547,-0.689106,-0.319349,-0.537356
548,-0.459684,-0.550981,-0.303017
549,-0.295244,-0.842852,-0.25648
550,0.041887,-0.791464,-0.481109
551,0.168304,-0.808457,-0.406527
552,0.087826,-0.872607,-0.243504
553,0.247808,-0.820446,-0.021675
554,0.162963,-0.739747,-0.088289
555,0.116666,-0.601608,-0.176128
556,0.729396,2.533984,0.750423
557,0.858038,2.890436,0.887592
558,-0.178624,0.755693,0.663825
559,-0.423313,1.094977,0.327655
560,-0.458126,2.092905,0.204108
561,0.347206,1.281018,0.368007
562,0.467894,0.892086,0.635043
563,0.329677,0.496928,0.805406
564,-0.119799,-0.11634,1.062246
565,-0.115433,-0.648208,1.070154
566,0.04553,-0.981366,1.020559
567,0.0863,-1.117215,1.079873
568,0.042168,-1.33874,1.097942
569,-0.007374,-1.254187,0.744322
570,0.29324,-0.540832,-0.1573
571,0.360684,0.480424,-1.595525
572,0.551824,0.579431,-1.449414
573,0.230068,-0.285317,-0.395372
574,-0.287021,-1.710712,3.194834
575,-0.58152,-1.612481,2.141055
576,-1.401518,6.256881,-1.724638
577,1.307424,4.985105,-2.041655
578,1.107241,-0.311057,1.729455
579,0.913355,0.332693,1.50004
580,0.787984,1.020525,1.278841
581,0.474741,1.580511,0.266429
582,0.625633,0.944587,-0.155171
583,0.359977,0.841812,0.158044
584,0.025406,0.371807,-0.005757
585,0.120689,0.056072,-0.233481
586,0.202201,-0.196177,-0.27752
587,0.290135,-0.379539,-0.272521
588,0.394994,-0.449179,-0.260677
589,0.633659,-0.496086,-0.243838
590,0.722156,-0.539007,-0.231332
591,0.737448,-0.635995,-0.243279
592,0.716832,-0.693346,-0.24689
593,0.617831,-0.655406,-0.178614
594,0.554063,0.000899,0.2513
595,0.639345,0.712327,0.445084
596,0.576012,1.342987,0.518843
597,0.078458,0.806079,-0.237532
598,-0.064721,1.130104,-0.511923
599,0.068338,1.512206,-0.444989
600,0.378625,1.062468,-0.185328
601,0.342701,0.695186,-0.061497
602,0.338108,0.429055,0.001195
603,0.371621,0.181153,0.051962
604,0.302946,-0.089541,0.111522
605,0.199353,-0.501991,0.14807
606,0.050347,-0.750663,0.257902
607,0.013777,-0.808483,0.250939
608,0.123499,-0.759386,0.137069
609,0.231317,-0.670996,-0.10683
610,0.361389,-0.595936,-0.481329
611,0.334046,-0.480167,-0.66199
612,0.306151,-0.4132,-0.624519
613,0.303106,-0.328439,-0.559186
614,0.288214,-0.422564,-0.433629
615,0.388593,-0.588782,-0.118902
616,0.023651,-1.168738,2.119582
617,-1.192109,0.619489,-0.857176
618,-0.282989,1.379348,0.669156
619,0.098089,0.690442,0.150415
620,0.069238,0.445031,-0.132515
621,0.39458,1.024376,0.296903
622,0.706246,1.68348,0.179792
623,1.229852,2.149078,0.019295
624,0.447259,1.242958,-0.709886
625,-0.524765,0.992397,-1.15023
626,-0.983291,0.364218,-1.091278
627,-1.082355,-0.207082,-1.332195
628,-0.459808,-0.517133,-1.255823
629,0.213145,-0.829607,-1.013409
630,0.547902,-1.008026,-0.711071
631,0.663346,-0.880543,-0.453559
632,0.391561,-0.968264,-0.118292
633,0.120355,-1.051244,-0.064223
634,0.140664,-0.82057,-0.557774
635,-0.366798,-0.157688,-1.701667
636,-0.55947,0.957686,-0.588936
637,-0.022442,1.714699,0.165008
638,-0.357285,2.309936,0.546879
639,-0.118959,1.524199,0.344956
640,0.071761,1.63434,-0.026628
641,0.919196,1.786448,-0.856428
642,0.511137,1.197357,-0.304436
643,0.216353,0.494643,0.21969
644,0.033397,-0.120412,0.524789
645,-0.281168,-0.794773,0.594341
646,-0.245406,-1.175986,0.793772
647,-0.235452,-1.542473,0.756822
648,-0.011456,-1.677512,0.676738
649,0.215828,-1.761671,0.471361
650,0.393544,-1.623264,0.228868
651,0.472365,-1.002946,-0.344176
652,0.669483,-0.014552,-1.540178
653,0.621933,0.216394,-0.91985
654,0.320833,-0.570991,-0.092849
655,-0.635906,-0.933589,2.128492
656,-2.406709,2.600376,-1.34107
657,-0.202839,-0.256113,0.936005
658,-0.128041,-0.030192,1.056607
659,0.170495,1.970464,1.206368
660,1.541631,2.407293,-1.344393
661,1.620398,1.846281,-1.208087
662,0.668589,1.351378,-1.036557
663,-0.359497,0.795574,-1.31815
664,-0.676928,0.351217,-1.251902
665,-1.388306,-0.305702,-1.271335
666,-0.076155,-0.782605,-0.930501
667,0.493547,-0.736471,-0.854237
668,0.355846,-0.862531,-0.707096
669,0.332023,-0.847475,-1.095557
670,0.074917,-0.56657,-1.262046
671,-0.402266,-0.824886,-0.85221
672,-0.770963,-0.325717,-0.668948
673,-0.60332,1.427016,-0.189572
674,0.140553,2.341942,0.445837
675,-0.296537,1.520538,0.579688
676,-0.701984,1.493947,0.740294
677,-0.546865,1.541347,0.196884
678,1.321871,1.393615,-0.220785
679,1.154361,1.049214,-0.067176
680,0.331822,0.262933,0.470553
681,-0.350392,-0.831886,0.827886
682,-0.385565,-1.508037,0.91866
683,-0.282885,-1.786179,0.866975
684,-0.115802,-1.634033,0.683555
685,-0.076137,-1.404425,0.301667
686,0.038825,-1.176888,0.094887
687,0.164157,-0.357358,-1.107285
688,0.531879,0.304029,-1.954123
689,0.637084,-0.343885,-1.165787
690,0.83944,-1.978948,1.809534
691,-0.071816,-1.507989,2.55998
692,-1.478037,5.569843,-1.413067
693,-0.108611,-0.775438,1.000627
694,-0.02981,-0.175029,1.407372
695,-0.211652,1.751773,1.386562
696,0.559265,2.5845,-0.704016
697,1.13706,1.647565,-0.617445
698,-0.473333,1.314975,-1.22571
699,-0.837983,0.89639,-1.609978
700,-1.12854,0.218574,-1.146057
701,-0.950123,-0.451225,-1.452344
702,0.247896,-0.758164,-0.841802
703,0.412519,-0.767709,-0.557905
704,0.286188,-0.880072,-0.696247
705,0.436575,-0.851105,-1.416948
706,0.085114,-0.681343,-1.773626
707,-0.384202,-0.723146,-0.589049
708,-0.361818,-0.535204,-0.165232
709,-0.380273,1.382559,0.27937
710,-0.007985,2.320733,0.004733
711,-0.78865,1.915314,0.301014
712,-0.032515,1.604349,-0.083824
713,0.458905,1.467713,-0.170002
714,1.153528,1.280797,0.069253
715,0.395877,0.52713,0.341049
716,-0.669658,-0.779345,0.922164
717,-0.827049,-1.619125,1.116933
718,-0.628524,-1.855958,0.965448
719,-0.114671,-1.499054,0.794992
720,0.019107,-1.426457,0.564318
721,0.181295,-1.6337,0.368375
722,0.05791,-1.227501,-0.301307
723,0.991787,0.524534,-1.571157
724,0.849304,-0.105622,-0.958561
725,0.781832,-0.758217,0.679371
726,-2.520575,3.687659,-3.903231
727,-0.646694,-0.230174,1.367158
728,-0.42399,-0.76775,1.152937
729,-0.640548,0.121282,1.104063
730,-0.387118,2.649014,1.439452
731,-0.330028,2.657955,1.406927
732,1.070393,1.800802,-0.899196
733,0.153596,1.409724,-1.10168
734,-0.498118,0.964237,-1.683311
735,-1.199753,-0.080429,-1.501957
736,-0.678316,-0.852119,-1.043321
737,0.263372,-0.800681,-1.026724
738,0.386966,-0.798742,-0.68405
739,0.247516,-0.870411,-0.686173
740,0.406558,-0.805873,-1.268996
741,-0.320647,-0.572758,-1.847877
742,-0.381894,-0.656774,-0.771516
743,-0.651216,-0.129261,0.136939
744,-0.773203,1.643363,-0.178954
745,0.20582,3.34924,-0.064029
746,-0.2408,1.874718,0.286575
747,-0.766148,1.87457,0.244267
748,0.182997,1.521837,-0.321037
749,1.230162,1.218072,0.16823
750,0.89387,0.852099,0.232694
751,-0.004069,0.049475,0.843258
752,-0.538704,-1.087295,1.119589
753,-0.568423,-1.873357,1.164316
754,-0.17115,-2.023825,1.025362
755,0.167262,-1.689192,0.731236
756,0.317287,-1.761986,0.629068
757,0.189854,-1.268412,-0.205567
758,0.26607,0.036816,-1.819208
759,0.350577,0.377356,-1.392553
760,0.52091,-0.166141,-0.574846
761,0.351267,-0.254654,2.687003
762,-1.339609,1.098043,-0.168921
763,-0.538001,-0.380316,1.025395
764,-0.419767,0.122973,1.446863
765,-0.465183,1.540213,0.651784
766,0.074816,2.411006,0.325844
767,0.860101,2.507596,-0.111363
768,-0.082728,1.324497,-1.183835
769,-0.355247,1.127189,-1.439793
770,-1.036142,0.458867,-1.474399
771,-0.682431,-0.426102,-1.267695
772,0.015231,-0.503779,-1.237377
773,0.490443,-0.80891,-0.961179
774,0.437536,-0.810523,-0.637811
775,0.274968,-0.886405,-0.923954
776,0.281416,-0.494709,-1.915535
777,-0.561908,-0.832297,-0.43059
778,-0.633276,-0.364092,-0.268069
779,-0.169989,1.106571,-0.005638
780,0.323696,2.299836,-0.029323
781,0.125082,2.581929,-0.14554
782,-0.422092,2.212974,0.180748
783,0.322675,1.457321,-0.238171
784,1.299665,1.167194,-0.062373
785,1.11557,0.857865,0.029552
786,-0.097204,0.108901,0.740049
787,-0.816685,-1.00233,1.158026
788,-0.779085,-1.733528,1.101627
789,-0.326858,-1.840407,0.94059
790,-0.190095,-1.566986,0.956109
791,-0.110082,-1.65987,0.708471
792,0.063281,-1.580651,0.46595
793,0.229854,-0.709536,-0.767564
794,0.883223,1.020203,-2.166874
795,1.000345,0.259568,-1.740563
796,0.041119,0.651231,1.956187
797,-1.071971,0.008274,1.345277
798,-0.978666,-0.468306,0.848049
799,-0.938141,0.242814,1.250107
800,-0.840947,0.947632,0.69818
801,0.421849,2.753645,0.478982
802,1.910041,2.268291,-0.770941
803,0.494418,1.450342,-1.280805
804,-0.302594,0.931887,-2.215275
805,-0.743636,0.211999,-1.345036
806,-1.168535,-0.682863,-0.879143
807,0.343991,-0.86999,-0.75317
808,0.406257,-0.8639,-0.858352
809,0.359659,-0.828444,-1.040615
810,-0.165351,-0.4325,-1.320547
811,-0.685002,-0.825148,-0.484375
812,-0.673798,-0.718732,-0.370594
813,-0.372846,-0.356707,-0.652776
814,0.27024,1.167365,0.103332
815,0.524191,2.802679,0.206981
816,-0.267494,1.903963,0.496945
817,-0.912834,1.86131,0.407154
818,-1.024474,1.849976,0.244421
819,1.376392,1.25063,0.19673
820,0.974109,0.606126,0.330006
821,-0.121232,-0.547126,0.922959
822,-0.744214,-1.492415,1.253328
823,-0.677487,-1.989199,1.195653
824,-0.523849,-2.025574,1.09988
825,0.156071,-2.016396,1.076644
826,0.194926,-1.19999,0.332467
827,0.295029,0.106551,-1.558685
828,0.406586,1.123085,-2.491985
829,0.544489,0.168979,-0.3955
830,0.781444,-0.913888,0.893657
831,-0.072663,-1.764819,2.186198
832,-2.202632,1.314608,-1.506467
833,-1.323891,1.545173,1.726607
834,-0.634919,-0.096185,0.327627
835,-0.349399,0.443684,1.067591
836,-0.077502,0.977811,1.012037
837,1.352869,2.062541,-0.10016
838,1.621529,1.963749,-0.094712
839,0.521309,1.290889,-1.909359
840,-0.68583,0.617544,-1.25902
841,-1.096291,-0.173996,-1.150231
842,-0.434486,-0.643664,-1.273828
843,0.499077,-0.792795,-0.961866
844,0.459757,-0.895146,-0.593952
845,0.297693,-0.887411,-0.842993
846,0.394024,-0.656085,-1.608425
847,-0.412031,-0.675024,-1.015562
848,-0.453502,-0.624121,-0.061607
849,-0.612325,0.159177,-0.051189
850,-0.266741,2.007422,-0.092862
851,-0.153843,2.110432,-0.196486
852,-0.688126,1.904816,0.061099
853,-0.581145,1.903993,0.146225
854,0.483659,1.455233,-0.318116
855,1.117131,0.784364,0.197708
856,-0.037604,-0.002818,0.798335
857,-0.371562,-0.595594,1.047971
858,-0.761196,-1.776492,1.177484
859,-0.53749,-1.878858,1.126209
860,0.028626,-1.693795,0.922885
861,0.135043,-1.771278,0.791647
862,0.095582,-1.214474,0.247427
863,0.402644,-0.21797,-1.603117
864,0.583379,0.670918,-1.491691
865,0.436628,-0.218357,-0.746575
866,-0.245768,-0.78443,2.70396
867,-1.938184,2.763091,-0.94958
868,-0.026441,-0.628029,1.049162
869,-0.002592,-0.156646,1.502652
870,-0.607585,1.174968,1.180614
871,-0.178342,2.05366,1.037437
872,0.347646,2.039765,0.172927
873,0.397054,1.667694,-0.813981
874,-0.556225,1.264303,-1.28264
875,-1.123989,0.459191,-1.713573
876,-1.362475,-0.289335,-1.520659
877,-0.558708,-0.908961,-1.081931
878,0.507758,-0.644892,-1.043516
879,0.436227,-0.739071,-0.451494
880,0.24271,-0.902218,-0.755622
881,0.327011,-0.863907,-0.960971
882,-0.040741,-0.519804,-2.237465
883,-0.232932,-0.617235,-1.121415
884,-0.305199,-0.186641,0.548825
885,-0.352705,2.316373,0.200723
886,-0.131519,3.961479,-0.341277
887,-0.75178,1.68359,-0.029722
888,-0.843395,1.762033,0.587178
889,0.328146,1.243305,-0.074785
890,0.977277,0.912403,0.318995
891,0.862112,0.455305,0.578904
892,-0.37943,-0.627639,1.049936
893,-0.63427,-1.565566,1.142151
894,-0.181034,-2.097474,1.037712
895,0.067655,-1.959196,0.945056
896,0.118375,-2.100535,0.771826
897,0.262385,-0.889533,0.219407
898,0.561792,-0.327027,-0.717995
899,0.765499,1.631282,-2.925063
900,0.480309,0.009006,-0.846502
901,0.52826,-0.697469,-0.29117
902,-0.319093,-0.864528,3.312673
903,-0.274612,-0.15135,0.752925
904,-0.287189,-0.277333,1.271386
905,-0.441769,0.420544,1.077763
906,-0.625906,2.114546,0.941865
907,-0.014955,2.257364,-0.212962
908,1.142625,1.485549,0.092658
909,-0.047205,1.399314,-1.241249
910,-0.788077,0.806971,-1.887281
911,-1.434376,0.200937,-1.370242
912,-0.710771,-0.873497,-0.838266
913,0.540336,-0.906219,-0.679068
914,0.533969,-0.858033,-0.805335
915,0.550047,-0.760602,-1.334546
916,0.382034,-0.613601,-1.351172
917,-0.322852,-0.823192,-1.027373
918,-0.441507,-0.597336,-0.414499
919,-0.440774,-0.211123,-0.546439
920,0.259198,1.234357,0.127059
921,0.659964,2.945136,0.262195
922,-0.276255,1.621004,0.26223
923,-1.197891,1.898048,-0.02202
924,-0.559336,1.251846,-0.198603
925,1.111656,1.228387,-0.036571
926,1.153836,1.004939,0.263656
927,0.16858,0.305207,0.652872
928,-0.702657,-1.023742,1.065424
929,-0.668769,-1.838892,1.106261
930,-0.188268,-1.762295,0.917053
931,-0.012293,-1.569827,0.847947
932,0.015088,-1.673688,0.672223
933,0.209291,-1.717154,0.560154
934,-0.000122,-1.024824,0.031121
935,0.284099,0.501042,-2.14982
936,0.736693,0.740862,-1.532722
937,0.535637,-0.556747,-0.321088
938,-0.51153,-0.960687,2.908731
939,-1.275519,3.892683,0.811753
940,0.339048,-0.906753,0.892925
941,0.385525,-0.436707,1.368244
942,-0.36164,1.943268,1.326467
943,0.020896,1.643549,0.735033
944,0.61184,1.904171,-0.984603
945,-0.336777,1.080434,-1.106449
946,-0.976956,0.388789,-1.315156
947,-1.12328,0.089994,-1.390888
948,-0.653284,-0.880856,-1.076701
949,0.494008,-0.873602,-0.684941
950,0.494444,-0.720684,-0.857115
951,0.332108,-0.76744,-0.956826
952,0.48697,-0.704281,-1.46165
953,-0.120131,-0.691385,-1.524835
954,-0.144256,-0.702593,-0.287794
955,-0.410798,-0.390023,-0.179717
956,-0.307025,0.814581,-0.23923
957,0.525865,3.453909,-0.053492
958,0.3714,3.228215,-0.19845
959,-0.829593,1.299917,0.175564
960,-0.65968,1.550314,-0.282269
961,0.663743,1.083676,0.024272
962,1.406234,0.829717,0.454109
963,0.530444,0.209723,0.535381
964,-0.478237,-0.864791,1.000632
965,-0.768423,-1.793798,1.244026
966,-0.427882,-1.895958,1.107195
967,-0.157783,-1.960743,0.938475
968,0.273574,-2.007963,0.990548
969,0.422222,-0.826562,0.115968
970,0.922665,0.774944,-2.194989
971,0.794818,0.988097,-2.118954
972,0.187256,0.547028,-1.223449
973,-0.547462,-0.599281,3.343338
974,-1.921517,1.510588,-0.610384
975,-1.44625,1.721128,-1.029883
976,-0.236926,0.04724,1.111661
977,-0.260719,0.077033,0.851325
978,-0.385359,1.207611,0.946535
979,0.716814,2.15755,-0.604636
980,1.167531,2.098563,-0.406751
981,-0.20017,1.10504,-1.390668
982,-0.78984,0.618512,-1.760458
983,-1.4236,0.122098,-1.353191
984,0.342157,-0.893861,-0.983749
985,0.734333,-0.911687,-0.888831
986,0.560773,-0.914865,-0.543573
987,0.40444,-0.835209,-1.250043
988,-0.097221,-0.304853,-2.221757
989,-0.442546,-0.681654,-1.832942
990,-0.668752,-0.548533,0.226345
991,-0.503688,1.339078,-0.525698
992,0.117293,2.093449,-0.161464
993,-0.414043,1.705976,-0.009631
994,-0.907743,1.708265,0.194844
995,-0.83518,1.747723,-0.031923
996,0.780067,1.135265,0.290615
997,1.367436,0.821224,0.423394
998,0.560068,0.354056,0.508989
999,-0.17352,-0.853505,0.998646
1000,-0.570748,-1.699376,1.182402
1001,-0.402242,-1.924487,1.161957
1002,-0.101408,-1.978172,0.99095
1003,0.383702,-1.709448,1.089961
1004,0.100562,-1.032465,0.295937
1005,0.891261,0.151799,-2.206532
1006,0.516371,0.430252,-1.958846
1007,0.453605,-0.575449,0.398948
1008,-0.552131,-0.797747,2.979774
1009,-1.723849,2.895291,-0.524305
1010,0.028058,-0.913661,1.133689
1011,-0.076362,0.078569,1.282547
1012,-0.47481,2.067195,1.321519
1013,0.725413,2.139835,-0.424266
1014,1.316141,1.711526,-0.247139
1015,-0.171023,1.392839,-1.332504
1016,-0.643999,1.072344,-1.570437
1017,-1.243689,0.085345,-1.231726
1018,-0.608553,-0.655641,-0.990108
1019,0.501258,-0.807405,-1.072044
1020,0.43558,-0.685156,-0.855578
1021,0.362734,-0.758846,-1.067787
1022,0.378729,-0.793352,-1.370252
1023,-0.414468,-0.746231,-1.480528
1024,-0.503559,-0.691311,-0.119775
1025,-0.405219,-0.196538,-0.453665
1026,0.097447,1.017987,0.027591
1027,0.463032,2.923149,0.328416
1028,-0.151982,2.486748,0.15359
1029,-1.006532,1.548397,0.026204
1030,-0.042352,1.204149,-0.119648
1031,0.988224,0.955429,0.090195
1032,0.915896,0.596734,0.181741
1033,-0.292742,-0.332571,0.834818
1034,-0.646015,-0.905135,1.122025
1035,-0.652569,-1.973205,1.112362
1036,-0.555572,-1.836118,1.110904
1037,-0.42454,-1.926728,0.90655
1038,-0.145989,-1.668476,0.622088
1039,0.154196,-0.884007,-0.062316
1040,0.947659,0.837568,-2.356845
1041,0.966569,0.682613,-1.527721
1042,0.045971,-0.296855,0.30312
1043,-0.977052,1.597803,0.777084
1044,-0.857114,-0.279419,0.756974
1045,-0.801521,-0.214375,1.718983
1046,-0.977129,0.165388,1.03365
1047,-1.23275,1.474778,0.185664
1048,0.058317,2.802075,0.072036
1049,1.805551,1.875564,-0.922508
1050,1.220891,1.338365,-1.096116
1051,0.128222,0.499004,-1.736402
1052,-0.661904,0.218917,-1.139681
1053,-1.061424,-0.64644,-1.071911
1054,0.03921,-0.995941,-0.861178
1055,0.527423,-0.681047,-0.770837
1056,0.347045,-0.70014,-0.778223
1057,0.450045,-0.815653,-1.294161
1058,0.06883,-0.466975,-2.038886
1059,-0.34547,-0.87004,-0.561377
1060,-0.38349,-0.493108,-0.000844
1061,-0.239498,0.518906,-0.013588
1062,0.352959,3.229472,0.304448
1063,-0.137216,2.12384,-0.151476
1064,-1.211604,1.5803,0.423365
1065,-0.921959,1.670741,-0.173658
1066,-0.458167,1.384517,-0.400793
1067,0.727565,0.964326,0.321817
1068,1.431115,0.684029,0.384542
1069,-0.127063,-0.300882,1.002211
1070,-0.499797,-0.854589,1.158247
1071,-0.670738,-2.054814,1.244938
1072,-0.504478,-1.93343,1.182544
1073,-0.435583,-1.991517,1.086108
1074,-0.142312,-1.426635,0.813192
1075,0.080231,-0.685611,-0.351012
1076,0.926969,1.048251,-2.576636
1077,0.448818,0.504299,-1.420676
1078,0.212678,-0.740502,0.062714
1079,0.349131,-1.431704,1.670988
1080,-2.689987,5.168986,-2.827365
1081,-1.227674,2.395523,1.426717
1082,-0.065197,-0.429992,0.489325
1083,-0.15391,0.429868,1.130039
1084,-0.461855,2.093107,1.246419
1085,-0.013469,2.145528,0.966579
1086,1.055531,1.609706,-0.950908
1087,-0.420922,0.824318,-1.740285
1088,-0.561804,0.258902,-1.220926
1089,-0.955578,-0.225273,-1.131945
1090,-0.257946,-0.911167,-0.876767
1091,0.570939,-0.854295,-0.748491
1092,0.49185,-0.747037,-0.987067
1093,0.568537,-0.643672,-1.406198
1094,0.55529,-0.298191,-1.645068
1095,-0.159263,-0.624426,-1.000802
1096,-0.264423,-0.588794,-0.390126
1097,-0.481956,-0.455404,-0.261849
1098,0.187684,1.197054,0.136406
1099,0.913658,4.455345,0.470436
1100,0.446027,3.462906,0.32308
1101,-1.342806,1.8085,-0.021795
1102,-0.840122,1.496194,-0.190293
1103,-0.058774,1.445609,-0.234493
1104,1.198862,0.743687,0.721158
1105,-0.505066,-0.814544,1.142026
1106,-0.717708,-1.322228,1.220012
1107,-0.757994,-2.1502,1.296407
1108,-0.421079,-1.981536,1.18529
1109,-0.244621,-2.102921,1.113634
1110,0.061267,-1.684641,0.895752
1111,0.11132,-0.742706,-0.165264
1112,0.268474,0.828189,-2.342381
1113,0.496903,1.196557,-1.436341
1114,0.574591,-0.047871,-0.602963
1115,0.72359,-1.131478,1.018829
1116,-0.096511,-0.39158,2.689756
1117,-2.059938,2.88608,-1.551286
1118,-0.573174,0.048747,0.833221
1119,-0.621272,-0.35103,0.978192
1120,-0.919804,0.436917,0.796827
1121,-0.592214,1.880613,0.887978
1122,0.896996,2.223623,-0.489853
1123,2.000288,1.884426,-1.335919
1124,0.554789,0.835509,-2.067858
1125,-0.185412,0.607135,-1.475238
1126,-0.450317,-0.059197,-1.04011
1127,-0.612582,-0.631814,-1.180327
1128,0.557971,-0.688998,-0.832936
1129,0.598347,-0.682467,-0.79649
1130,0.308204,-0.900108,-0.66902
1131,0.658219,-0.831541,-1.675351
1132,-0.236187,-0.608034,-1.552004
1133,-0.129809,-0.603748,-0.400013
1134,0.010565,0.433618,0.460027
1135,0.471463,1.855127,0.440836
1136,0.460783,2.091809,0.095645
1137,-0.494589,1.926834,-0.135758
1138,-0.631717,2.110309,0.004134
1139,-0.781976,1.528366,-0.031922
1140,1.347317,1.009245,0.232602
1141,0.613775,0.618702,0.24298
1142,-0.270174,-0.045077,0.933866
1143,-0.779372,-1.048525,0.997422
1144,-0.695242,-1.591645,0.98639
1145,-0.484595,-1.840126,0.924175
1146,-0.371562,-1.928038,0.933711
1147,-0.265959,-1.885769,0.818577
1148,-0.04241,-1.277711,0.350252
1149,0.207364,-0.341634,-1.086323
1150,0.620241,1.115549,-2.390669
1151,0.777775,0.276591,-0.917591
1152,0.167296,-0.053155,1.75228
1153,-0.921822,2.768394,0.872551
1154,-0.59194,-1.082499,0.982995
1155,-0.814516,-0.737831,1.713555
1156,-1.150411,0.494194,1.096863
1157,-1.327437,1.446875,-0.174673
1158,-0.081594,2.072038,0.97843
1159,1.359596,2.139914,-1.205052
1160,2.083323,1.51495,-0.927703
1161,0.756837,0.674998,-1.164941
1162,-0.080249,0.351317,-1.197018
1163,-0.521723,-0.238503,-0.980023
1164,-0.665592,-0.55993,-1.24232
1165,0.000659,-0.788133,-0.829286
1166,0.52479,-0.595275,-0.783626
1167,0.342117,-0.816104,-0.654192
1168,0.534931,-0.809918,-1.370182
1169,0.014494,-0.634541,-1.675994
1170,-0.07236,-0.556828,-0.056208
1171,0.021988,-0.539901,0.049263
1172,0.173102,0.640915,0.150654
1173,0.460408,2.290817,0.234108
1174,-0.395177,1.809116,-0.271113
1175,-0.819626,1.716551,-0.039208
1176,-1.099226,1.826113,-0.151593
1177,-0.00062,1.414297,-0.0096
1178,1.456351,1.177865,0.50382
1179,0.425551,0.418805,0.390307
1180,-0.350413,-0.567074,0.891154
1181,-0.549758,-1.327401,1.017421
1182,-0.515108,-1.662536,0.970498
1183,-0.286889,-1.704025,0.89393
1184,-0.098206,-1.89134,0.845474
1185,0.178374,-1.466149,0.68102
1186,-0.057427,-0.804126,0.03184
1187,0.301643,0.66396,-2.428346
1188,0.500167,0.825843,-1.926898
1189,0.487073,-0.390731,-0.717309
1190,0.162776,-0.49296,2.965755
1191,-0.865972,2.700063,-0.755566
1192,-0.191387,-0.81974,0.702346
1193,-0.522748,-0.321129,1.485597
1194,-0.812355,0.433536,0.94843
1195,-1.059877,1.609406,0.419704
1196,-0.020963,1.56521,0.429438
1197,0.7301,1.287432,-0.605906
1198,1.144607,1.090522,-0.927398
1199,0.187111,0.697677,-1.010004
1200,-0.143753,0.450846,-1.198694
1201,-0.234501,-0.428085,-0.846186
1202,-0.174503,-0.659277,-0.830494
1203,0.035853,-0.866705,-0.741592
1204,0.33121,-0.783047,-0.905124
1205,0.311292,-0.82738,-0.859297
1206,0.340006,-0.853559,-0.925728
1207,-0.424855,-0.782565,-1.08679
1208,-0.494955,-0.598147,-0.653365
1209,-0.582598,0.283894,0.150694
1210,0.12758,2.063991,0.532244
1211,0.16478,2.73217,0.445009
1212,-0.42334,0.739545,0.190694
1213,-1.038984,1.336528,-0.210543
1214,-0.350781,1.365906,-0.397432
1215,1.241803,1.199857,0.2867
1216,0.644181,0.704065,0.222406
1217,-0.008596,-0.044355,0.866404
1218,-0.389742,-1.044151,0.908884
1219,-0.449628,-1.514321,0.995442
1220,-0.467787,-1.611778,0.910561
1221,-0.536453,-2.070017,0.80856
1222,0.224624,-1.53007,0.678415
1223,0.300489,-0.558764,0.036145
1224,0.268894,0.368106,-2.056532
1225,0.199369,0.639598,-1.802547
1226,0.120957,-0.360431,-0.523526
1227,0.316356,-0.788863,0.044232
1228,-0.239107,-0.097454,1.878361
1229,-0.979028,0.905772,-0.003789
1230,-0.580556,0.513988,1.040148
1231,-0.424433,0.084074,1.042408
1232,-0.45233,0.836373,0.657378
1233,-0.324354,1.140711,0.640675
1234,0.228289,1.709076,-0.081914
1235,0.684402,0.984253,-0.611138
1236,0.921246,0.838663,-0.978318
1237,-0.072704,0.674548,-1.256124
1238,-0.295277,0.305218,-1.345557
1239,-0.03765,-0.041493,-0.799669
1240,0.107099,-0.540415,-0.662425
1241,0.345135,-0.660318,-1.074201
1242,0.340406,-0.715663,-0.994902
1243,0.342195,-0.911835,-0.888059
