,userAcceleration.x,userAcceleration.y,userAcceleration.z
0,0.667994,-0.541705,0.049186
1,0.66845,-1.440548,0.63291
2,0.218601,-1.487807,0.557286
3,0.082111,-1.352358,0.542893
4,0.546286,-0.849109,0.288193
5,0.591147,-0.332848,0.500601
6,0.6513,0.0097,0.706774
7,-0.004784,0.427063,-0.163103
8,-1.124227,0.340753,0.09417
9,-2.138,0.476322,0.084387
10,-2.379142,1.379158,-0.340699
11,-0.692862,1.309741,0.354472
12,-0.956941,1.255153,0.136052
13,-1.297363,0.844882,-0.271855
14,-0.858373,-0.100108,-0.475835
15,-0.526532,0.074721,-0.401162
16,0.36162,0.511952,-0.649646
17,1.645319,0.560918,-0.420173
18,1.991851,0.248432,-0.329101
19,2.412226,-0.357391,-0.197602
20,1.828121,-0.558739,-0.678021
21,1.36254,-0.458753,-0.757118
22,0.605111,0.007051,-0.231156
23,0.330355,0.087697,-0.049429
24,-0.112476,0.182287,0.556497
25,0.121024,0.115638,0.2124
26,0.158169,1.004464,-0.292207
27,-2.769856,4.267059,0.077262
28,1.099605,-0.756269,-0.911728
29,1.566615,-0.702859,-0.907837
30,1.70243,-0.405009,-0.958226
31,-0.321106,1.434602,-1.552368
32,-4.903918,2.944007,1.196402
33,-1.51272,-1.502541,0.637726
34,-1.232395,-0.20382,1.13101
35,-0.274802,0.556361,0.548782
36,0.032188,0.360274,0.83961
37,0.244565,-0.327402,0.189702
38,0.71866,-0.949885,0.456755
39,0.4694,-1.522055,0.478
40,0.185207,-1.627826,0.285754
41,0.381259,-1.501877,0.603201
42,0.617918,-1.046792,0.501468
43,0.476025,-0.351604,0.579744
44,0.734517,0.216936,0.763809
45,0.427311,0.241795,-0.158542
46,-0.600018,0.370435,-0.236834
47,-3.245055,0.271305,0.168134
48,-2.442555,1.561138,-0.156003
49,-0.68999,1.80768,0.254932
50,-1.424645,1.092195,-0.156608
51,-1.60407,1.002744,-0.371302
52,-1.182467,0.278698,-0.532148
53,0.086095,0.485252,-0.699756
54,0.658351,0.558996,-0.735852
55,1.525842,0.475979,-0.563341
56,2.534148,-0.363805,-0.361989
57,2.459222,-0.728361,-0.445005
58,2.005489,-0.945472,-0.739655
59,0.973902,-0.220012,-0.733447
60,0.601874,0.01304,-0.310704
61,-0.26425,0.037059,0.109925
62,-1.014326,0.449143,1.471055
63,-2.382964,2.075808,0.002995
64,0.572254,0.762639,-1.348152
65,1.44051,0.365051,0.167379
66,1.674489,-0.023231,-1.386749
67,0.418272,1.050199,-1.322567
68,-0.791304,1.888548,-1.618024
69,-2.978153,3.297623,-0.500403
70,-1.609777,-1.260094,0.607757
71,-1.756575,-0.776227,0.714474
72,-1.277401,-0.305054,0.631178
73,-0.082022,0.126449,0.717193
74,0.4364,-0.490712,-0.031155
75,0.766551,-0.71258,0.161926
76,0.484672,-1.527968,0.691496
77,0.051663,-1.44124,0.473742
78,0.105591,-1.400175,0.343852
79,0.612572,-0.9283,0.343305
80,0.61668,-0.257264,0.03502
81,0.374538,0.328572,-0.359303
82,-0.649591,0.443033,0.991756
83,-0.745183,0.349197,0.089117
84,-1.386006,0.831474,0.063305
85,-1.528012,1.964277,-0.070717
86,-0.908716,1.140832,-0.321702
87,-1.770092,0.273785,-0.442046
88,-1.659279,-0.329459,-0.244732
89,-0.796853,0.283873,-0.382505
90,0.095974,0.740806,-0.917316
91,1.323175,0.860607,-0.998932
92,2.228364,0.485573,-0.567428
93,2.567942,-0.330223,-0.51834
94,2.183763,-0.690821,-0.826999
95,1.710991,-0.46457,-1.085279
96,1.104987,-0.154669,-0.637368
97,0.217935,-0.028697,0.159753
98,-0.53876,-0.182775,0.469326
99,-0.281469,-0.175199,0.35742
100,0.265358,0.116318,-0.258196
101,-2.329627,3.597263,-0.566058
102,-0.577839,1.395028,-2.533079
103,0.568427,-0.36485,-0.862631
104,1.216267,-0.527316,-1.160261
105,0.806703,-0.181987,-1.300589
106,-1.517208,2.286015,-2.202024
107,-1.367544,-0.606996,0.496436
108,-0.992433,-0.965865,0.556129
109,-0.222986,0.631564,1.074495
110,-0.064707,0.483679,0.911284
111,-0.046022,0.169602,0.462234
112,0.617163,-0.862773,0.251817
113,0.648286,-1.079976,0.50671
114,0.364843,-1.700715,0.483854
115,0.429754,-1.40948,0.203992
116,0.582012,-1.186936,0.37584
117,0.632765,-0.973901,0.417876
118,0.75757,-0.068608,0.421188
119,0.611396,0.126616,-0.209569
120,0.298742,0.184355,-0.447994
121,-1.905096,0.027634,0.199545
122,-2.810565,1.148842,0.152436
123,-1.368335,2.192026,-0.065972
124,-0.777914,1.245167,0.486805
125,-1.490296,0.910387,-0.607545
126,-1.554724,0.145355,-0.461229
127,-0.808248,-0.005445,-0.499982
128,0.030796,0.756327,-0.569793
129,1.018534,0.860361,-0.682021
130,1.676789,0.524897,-0.43208
131,2.325269,-0.051768,-0.304465
132,2.51297,-0.575905,-0.410076
133,1.914148,-0.726086,-0.71467
134,1.149684,-0.369347,-0.754056
135,0.492419,-0.063691,-0.178436
136,-0.309209,0.082564,0.350319
137,-0.26271,0.203234,0.526576
138,0.03365,0.135028,-0.050448
139,0.000541,1.565669,-0.959175
140,-0.116856,1.213104,-1.427112
141,0.290481,0.072636,-0.681594
142,1.272328,-0.664856,-0.926848
143,0.928644,0.248757,-1.489321
144,-0.29872,0.850494,-1.952391
145,-4.111062,2.829529,-0.450746
146,-1.438677,-1.148403,0.92329
147,-1.532671,-0.122827,1.161831
148,-0.567918,0.655499,0.90318
149,0.21116,-0.039684,0.180749
150,0.52068,-0.380313,0.221493
151,0.658261,-1.093194,0.403811
152,0.29294,-1.607255,0.434452
153,0.239346,-1.582055,0.426371
154,0.609677,-1.040784,0.561274
155,0.618015,-0.814657,0.523123
156,0.544588,0.130419,0.770164
157,0.045336,0.304132,-0.268357
158,-0.494207,0.290353,0.003044
159,-1.642924,0.379638,-0.044855
160,-2.810637,1.867465,-0.321592
161,-0.915386,1.531133,-0.128882
162,-1.545032,0.802639,0.235958
163,-1.578025,0.719345,-0.409202
164,-0.960985,0.338339,-0.722372
165,0.098314,0.610817,-0.839282
166,1.433798,0.892024,-0.781213
167,2.037658,0.525462,-0.424201
168,2.40114,-0.2634,-0.444522
169,2.373713,-0.649151,-0.57707
170,2.032337,-0.523275,-0.816753
171,1.170727,-0.198363,-0.727495
172,0.513752,0.033998,-0.002409
173,-0.390205,0.025352,0.256524
174,-0.539813,-0.050437,0.55711
175,-0.300803,-0.094158,0.532411
176,-2.684625,3.332973,-0.475657
177,0.099713,0.932898,-0.908699
178,1.295403,-0.133025,-0.970026
179,1.796873,0.115945,-1.210393
180,1.200638,0.613487,-1.325957
181,-1.075854,2.074128,-1.34983
182,-2.239063,-0.22985,0.653374
183,-1.498181,-1.635596,1.123087
184,-1.674746,-0.342322,0.911
185,-0.140692,0.298357,0.984585
186,0.1491,0.182947,0.331202
187,0.775762,-0.415524,-0.154384
188,0.309677,-1.793408,0.597018
189,0.147083,-1.960423,0.509901
190,0.032978,-1.726132,0.440382
191,0.652794,-0.840319,0.398465
192,0.656306,-0.633294,0.381382
193,0.746705,0.016502,0.645781
194,0.609205,0.175016,0.203208
195,0.233484,0.263722,-0.478512
196,-3.050885,0.458525,0.327592
197,-3.329158,1.44342,-0.042667
198,-1.921116,1.74477,-0.572113
199,-1.277817,0.807598,0.115691
200,-1.519984,0.804461,-0.187495
201,-1.011581,0.56152,-0.845218
202,-0.171569,0.66269,-0.8254
203,1.01602,0.890442,-0.809327
204,1.777852,0.705779,-0.577778
205,2.248072,0.110667,-0.372793
206,2.299889,-0.522512,-0.500711
207,2.051447,-0.593771,-0.86968
208,1.477466,-0.204485,-0.769186
209,0.499189,0.098792,0.033337
210,-0.795427,0.06006,0.807815
211,-3.022424,0.115844,2.44221
212,-0.617793,1.29763,-4.178263
213,2.039793,1.463069,1.907872
214,1.953596,0.350116,-1.764808
215,1.468422,0.740966,-0.790566
216,-0.186026,1.77162,-0.718392
217,-3.350981,2.283495,-0.176113
218,-1.980012,-0.181529,0.108251
219,-1.606629,-1.492563,1.221243
220,-1.554358,-1.00728,0.793327
221,-0.305523,0.017944,1.350525
222,-0.086516,0.385419,0.739836
223,1.055345,0.061951,0.257922
224,0.120985,-1.196818,0.579339
225,-0.017265,-1.712437,0.574046
226,0.256371,-1.761214,0.577789
227,0.69813,-0.871544,0.274973
228,0.737385,-0.655586,0.379653
229,0.633655,-0.063494,0.614124
230,0.255664,-0.03896,-0.482216
231,-0.229824,-0.068074,-0.234024
232,-1.91601,0.107351,-0.112878
233,-1.809837,2.194143,0.129452
234,-1.804011,2.227405,0.086815
235,-0.956026,1.340921,-0.422577
236,-1.456467,0.592781,-0.230854
237,-1.51619,0.260785,-0.478993
238,-1.002229,-0.079086,-0.352421
239,0.360239,0.687904,-0.675043
240,0.89248,0.749156,-0.834348
241,1.798943,0.498668,-0.666152
242,2.741052,-0.285593,-0.322131
243,2.761967,-0.534504,-0.424766
244,2.350219,-0.486629,-1.006318
245,0.829193,0.113497,-0.423709
246,0.555845,0.161947,0.099043
247,-0.432342,-0.208751,0.253182
248,-0.552303,0.064559,0.730792
249,-0.333662,0.017512,0.707066
250,-2.367338,3.655131,-0.15358
251,-0.587395,1.807394,-2.09655
252,0.83953,0.004092,-0.36579
253,1.819242,-0.211993,-1.331073
254,1.72241,0.152082,-1.091048
255,-1.951401,2.851066,-1.627432
256,-3.177961,1.246759,1.014292
257,-1.393119,-1.336861,1.000242
258,-1.348161,-0.021536,0.541617
259,-0.428475,0.376919,1.2602
260,0.091656,0.023237,0.301604
261,0.640181,-0.661014,0.115638
262,0.614481,-1.33792,0.700565
263,0.203047,-1.840856,0.424232
264,0.214786,-1.618833,0.284487
265,0.603636,-1.263612,0.460925
266,0.65809,-0.888452,0.42833
267,0.600866,-0.198316,0.658296
268,0.594617,0.133993,0.270131
269,-0.141403,0.220999,-0.277488
270,-2.026594,0.235493,0.304807
271,-3.033977,1.031197,0.109474
272,-1.485141,1.9982,-0.405446
273,-0.655504,1.333503,0.499666
274,-1.448327,0.82787,-0.301054
275,-1.491516,0.361925,-0.492957
276,-1.113767,0.182873,-0.424498
277,0.212388,0.647509,-0.58969
278,1.122161,0.858838,-0.621706
279,1.452986,0.695553,-0.586071
280,2.399452,-0.074373,-0.234921
281,2.430696,-0.435333,-0.702825
282,2.171375,-0.349757,-0.76299
283,0.664865,0.104385,-0.147613
284,-0.076752,-0.080051,0.168422
285,-0.537667,-0.061411,0.429737
286,-0.652548,-0.076804,0.813077
287,-2.531427,2.196147,-1.73337
288,-1.280393,1.816086,-2.066128
289,1.160006,0.190984,-0.981604
290,1.651567,-0.084141,-1.293877
291,1.651563,-0.147103,-1.183404
292,0.612389,1.303383,-0.997001
293,-3.510295,3.301512,-0.133511
294,-2.217216,0.689391,-0.009971
295,-1.566937,-1.445398,1.054993
296,-0.898738,-0.041097,0.797792
297,-0.382559,0.207316,1.325137
298,0.099695,0.103268,0.413788
299,0.83591,-0.707455,0.280067
300,0.726781,-1.000701,0.542174
301,0.099178,-1.648664,0.448012
302,0.102311,-1.601818,0.344963
303,0.552621,-1.28319,0.506186
304,0.587963,-0.624164,0.51054
305,0.678602,0.084437,0.65344
306,0.434782,0.204662,-0.077106
307,-0.403021,0.210692,-0.072223
308,-1.196297,0.232488,-0.111671
309,-2.371764,1.04284,-0.075992
310,-1.013978,1.7068,-0.178524
311,-0.894706,1.193419,0.408888
312,-1.36686,0.850044,-0.220372
313,-1.186892,0.361263,-0.481502
314,-0.859496,0.090764,-0.640706
315,0.193084,0.606899,-0.534978
316,1.587096,0.720888,-0.449424
317,1.925364,0.485082,-0.269655
318,2.227559,0.191163,-0.162982
319,2.409064,-0.547155,-0.354361
320,1.847728,-0.473009,-0.570503
321,1.361524,-0.359105,-0.568162
322,0.421341,0.010051,0.030537
323,-0.247292,-0.013979,0.224406
324,-0.30546,0.101581,0.484347
325,0.15174,0.01692,0.080998
326,-0.897616,2.08653,0.059866
327,-3.4217,3.214518,-0.299508
328,0.368967,0.0351,-0.55283
329,1.615529,-0.459568,-1.100155
330,1.784198,-0.199359,-0.969607
331,-0.162676,1.558506,-1.524913
332,-3.548879,2.658735,0.263632
333,-2.205438,0.459874,1.489475
334,-0.98285,0.338474,0.320639
335,-0.557993,0.420624,0.758297
336,-0.384201,0.39975,1.072001
337,0.093713,-0.564288,0.180955
338,0.462816,-1.129119,0.356544
339,0.682651,-1.511365,0.611778
340,0.256081,-1.648965,0.385938
341,0.364114,-1.420868,0.504185
342,0.573409,-1.08548,0.621809
343,0.51055,-0.366543,0.522945
344,0.692509,0.230963,0.763758
345,0.617821,0.175305,0.441545
346,0.007759,0.15444,-0.59983
347,-1.902989,0.148311,-0.1839
348,-3.821319,0.587617,0.129416
349,-1.344805,1.912003,-0.170522
350,-0.576179,1.35263,0.331556
351,-0.94013,1.159058,-0.045183
352,-1.356078,0.336102,-0.63072
353,-0.644078,-0.006289,-0.273817
354,-0.150887,0.351777,-0.438103
355,1.089072,0.657244,-0.665106
356,1.952773,0.306702,-0.138954
357,2.181577,0.070557,-0.106246
358,2.39002,-0.353496,-0.211289
359,1.479752,-0.352302,-0.553027
360,1.08718,-0.232922,-0.619723
361,0.50028,0.112036,-0.162371
362,-0.181765,0.118164,0.407663
363,-0.056314,0.13978,0.525911
364,0.318044,0.674996,-0.263491
365,-0.672989,2.131644,-0.265697
366,-1.562272,2.06425,-1.735604
367,0.779159,-0.772442,-0.832904
368,1.337715,-0.838369,-0.678741
369,1.612589,-0.202803,-0.836247
370,-3.095201,3.417375,-1.830712
371,-2.579752,0.972851,1.104598
372,-1.342159,-0.129856,1.133812
373,-1.419096,0.028027,0.687826
374,-0.663863,0.613172,0.621257
375,-0.333569,0.135653,1.158356
376,0.161331,-0.551298,0.093908
377,0.815528,-0.822147,0.491816
378,0.443347,-1.323681,0.579154
379,0.357332,-1.663507,0.290053
380,0.483002,-1.540627,0.525193
381,0.652981,-1.119257,0.636469
382,0.528138,-0.430459,0.392476
383,0.711951,0.134562,0.632281
384,0.593272,0.172033,0.375674
385,-0.190426,0.254817,-0.387513
386,-2.658891,0.365928,-0.152644
387,-3.136729,0.897677,0.016958
388,-0.898705,2.101126,0.182614
389,-0.611246,1.797202,0.690076
390,-1.159813,1.103234,-0.205844
391,-1.275054,0.034709,-0.481095
392,-0.19862,0.108015,-0.356161
393,0.317778,0.352449,-0.596816
394,1.307656,0.697199,-0.596676
395,1.934157,0.243357,-0.229693
396,2.121177,-0.002723,-0.219691
397,2.335585,-0.499111,-0.260833
398,1.577335,-0.489012,-0.686583
399,1.213789,-0.367434,-0.682538
400,0.580394,-0.062406,-0.291234
401,-0.751026,-0.12144,0.330156
402,-0.631709,-0.009168,0.844638
403,-0.786261,0.630138,0.629101
404,-1.128252,1.884206,-2.364992
405,0.600733,0.678843,-0.840722
406,1.634549,-0.188638,-0.962389
407,1.959983,0.202153,-1.163238
408,1.271114,0.761146,-1.219194
409,-4.013427,3.897376,-1.036558
410,-1.533181,-0.324341,0.539736
411,-1.702574,-0.577884,0.692656
412,-0.998224,-0.074691,0.487042
413,-0.660359,0.141128,1.173314
414,0.064143,-0.365511,0.110658
415,0.688119,-0.811405,0.104894
416,0.780341,-1.275105,0.727951
417,0.067727,-1.628075,0.49271
418,0.237314,-1.612931,0.320566
419,0.580302,-1.239349,0.579677
420,0.655459,-0.821758,0.542656
421,0.6322,0.019581,0.616634
422,0.577896,0.262801,0.456395
423,-0.097945,0.262482,-0.287184
424,-1.813118,0.126871,-0.028956
425,-3.145573,0.802464,0.241671
426,-1.58726,1.990726,-0.105315
427,-0.619388,1.176598,0.266864
428,-1.257706,0.963222,-0.335758
429,-1.458694,0.649789,-0.485981
430,-0.990097,-0.020649,-0.570228
431,0.484386,0.74944,-0.59831
432,0.996141,0.858225,-0.627195
433,1.701953,0.499775,-0.348135
434,2.60823,-0.29348,-0.203014
435,2.713255,-0.552738,-0.276317
436,2.271149,-0.623038,-0.545654
437,0.750446,-0.116046,-0.601774
438,0.486033,0.01991,-0.263651
439,-0.468967,-0.072561,0.303403
440,-1.102225,0.640124,1.31917
441,-1.779673,1.375206,0.414231
442,-3.085479,2.525016,-1.068695
443,1.963977,-0.026574,0.5461
444,2.296536,-0.129942,-0.908221
445,1.968062,-0.106538,-1.350268
446,0.341532,1.382906,-1.125359
447,-1.42403,2.471148,-1.644267
448,-3.600205,1.891596,1.594011
449,-1.607195,-0.729402,0.902526
450,-1.475496,-0.342321,0.256342
451,-0.41086,0.036179,1.37498
452,-0.086441,-0.446231,0.3502
453,0.759968,-0.804451,0.101258
454,0.975316,-1.000583,0.560984
455,0.50418,-1.276367,0.636069
456,0.348845,-1.497644,0.476245
457,0.568735,-1.101824,0.548935
458,0.619833,-0.90808,0.513805
459,0.697394,0.090248,0.609112
460,0.537017,0.183854,0.086051
461,-0.473845,0.106106,-0.28727
462,-3.090597,-0.153777,-0.042399
463,-2.362083,0.732061,0.037041
464,-1.160305,2.119465,0.096787
465,-0.585635,1.975998,0.585222
466,-1.200594,1.34073,-0.62438
467,-1.346859,0.78931,-0.608958
468,-1.282193,0.351159,-0.423699
469,-0.257251,0.30293,-0.162761
470,0.635752,0.67365,-0.650862
471,1.20214,0.45792,-0.693965
472,2.133795,0.088765,-0.021197
473,2.507088,-0.232595,-0.28866
474,2.328173,-0.369931,-0.367197
475,0.929726,-0.215768,-0.708437
476,0.357524,-0.038617,-0.244393
477,0.018329,-0.128401,-0.070221
478,-0.789391,0.194572,0.560169
479,-0.012592,-0.105873,0.526318
480,-0.001317,0.267901,-0.27776
481,-2.651472,3.425236,1.484853
482,0.652911,-0.397998,-0.885027
483,1.520185,-0.835333,-0.072572
484,1.828424,-0.478099,-1.395826
485,1.141879,0.641811,-0.977437
486,0.238743,0.858118,-0.709566
487,-4.24822,4.109757,-1.780862
488,-0.516473,-0.902756,0.443537
489,-0.698449,-0.483688,0.446008
490,-0.747731,0.236068,0.244214
491,-0.412642,0.032371,1.005889
492,-0.381767,-0.389001,0.968589
493,0.165097,-0.735878,0.394249
494,0.904659,-0.80837,0.565336
495,0.850753,-0.938085,0.510987
496,0.64609,-1.147455,0.301193
497,0.631828,-1.109193,0.377699
498,0.602205,-0.737384,0.389493
499,0.478835,-0.063479,0.353046
500,0.383531,0.071695,0.108629
501,-0.35284,0.301978,-0.41011
502,-2.02803,0.154839,-0.407045
503,-2.685447,0.968319,0.029409
504,-0.813191,1.598265,0.256827
505,-0.195374,1.140719,0.26244
506,-0.289521,0.972709,0.088323
507,-0.591489,1.184597,-0.431864
508,-0.938622,0.306941,-0.329129
509,-0.27943,0.231848,-0.216868
510,0.088431,0.36495,-0.179564
511,1.256099,0.43075,-0.161451
512,1.928175,0.173405,0.089386
513,1.940014,0.026432,0.134938
514,1.383324,0.044429,-0.118742
515,0.622056,0.053876,-0.077723
516,0.097829,-0.106292,0.05342
517,-0.346994,-0.809756,-0.103165
518,0.602276,-0.632087,-0.276869
519,0.60636,-0.608289,-0.273897
520,-0.060697,1.218222,0.591435
521,-1.014432,2.063617,-3.111175
522,0.006254,0.597112,-1.316567
523,0.967214,-0.276859,-0.630517
524,1.32348,-0.485465,-0.331266
525,0.417686,0.463544,-1.341348
526,-2.089549,2.624389,0.404445
527,-0.325686,0.085265,-0.363202
528,-0.301639,-0.014268,-0.29329
529,-0.470744,-0.22358,0.317394
530,-0.53131,0.203726,0.493938
531,-0.521183,0.033989,0.602133
532,-0.267262,-0.464405,0.75829
533,0.31239,-0.708998,0.307359
534,0.49396,-0.648519,0.211232
535,0.721036,-0.675841,0.127796
536,0.645356,-0.646459,0.078035
537,0.637865,-0.611372,0.081015
538,0.115705,-0.148678,-0.387436
539,-0.547497,0.330857,0.239685
540,-2.232433,0.762708,-0.507388
541,-1.164591,0.711766,-0.746626
542,-0.370076,0.62528,-0.738183
543,-0.419352,0.699727,0.230549
544,-0.403408,0.48327,-0.107789
545,-0.447869,0.590166,-0.302382
546,-0.328709,0.390671,-0.489635
547,0.204771,0.54174,-0.467228
548,0.741323,0.549275,-0.375137
549,1.02873,0.32319,-0.246358
550,1.069568,0.023544,-0.155111
551,0.8333,-0.097491,-0.074192
552,0.617555,-0.17098,-0.013998
553,-0.458507,-0.337548,0.230082
554,-0.332083,-0.757659,0.062335
555,-0.111964,-0.900662,-0.183883
556,0.786831,-0.49287,-0.769913
557,1.136815,0.051789,0.759003
558,-0.763995,1.898954,3.029673
559,-1.371793,0.839366,-0.818114
560,0.463517,-0.33676,-1.681996
561,0.992848,-0.583219,-0.453297
562,-0.312213,0.352341,-0.372673
563,-2.41712,1.396075,-0.499159
564,-0.644252,-0.008428,-0.520255
565,-0.50568,0.073569,-0.46579
566,-0.449427,0.266794,-0.301643
567,-0.382079,0.227157,-0.187109
568,-0.229134,0.096138,0.148111
569,-0.42936,-0.221117,0.362114
570,-0.219512,-0.571794,0.121338
571,-0.006696,-0.725746,-0.004324
572,0.218432,-0.785732,-0.211619
573,0.467396,-0.78087,-0.259983
574,0.595135,-0.839075,-0.216841
575,0.324485,-0.971462,-0.3366
576,0.28186,-1.037559,-0.430524
577,0.31809,-1.05291,-0.479783
578,0.047156,-0.396928,-0.826071
579,-0.333454,-0.084583,-0.909241
580,-2.254754,0.440657,-0.618998
581,-1.165111,0.234163,-0.720749
582,-0.996241,0.330793,-0.180445
583,-1.230129,0.29424,0.099454
584,-1.507265,0.169111,-0.255301
585,-1.735453,-0.025277,-0.677533
586,-1.060466,0.357267,-0.594149
587,-0.756231,0.502814,-0.559282
588,0.18651,0.683886,-0.629455
589,0.715802,0.336923,-0.485429
590,1.081507,0.083591,-0.157254
591,1.314992,-0.05261,-0.110317
592,1.254295,-0.237781,-0.164423
593,1.113515,-0.335218,-0.177489
594,0.560604,-0.593908,-0.188535
595,-0.174299,-1.058459,-0.044078
596,-0.299978,-1.291065,-0.204191
597,-0.188634,-1.38634,-0.424446
598,0.730397,-0.756708,-1.161345
599,0.447565,0.239002,0.000314
600,-0.470568,1.096357,0.730974
601,-0.974489,1.374136,-0.886219
602,0.036919,-0.651942,-0.052679
603,0.090469,-0.591766,-0.678074
604,-1.18615,0.89395,-0.53723
605,-1.084087,-0.285507,-0.435703
606,-1.091531,-0.302631,-0.355701
607,-1.406372,-0.032789,0.801247
608,-1.089931,0.449779,0.838721
609,-0.716264,0.354534,0.780989
610,-0.303876,-0.371354,0.273341
611,-0.078797,-1.048209,0.009149
612,0.213663,-1.403142,0.177875
613,0.326848,-1.666178,0.533773
614,0.057207,-1.770397,0.439074
615,0.149019,-1.441761,0.163314
616,0.438858,-1.12538,0.180119
617,0.520154,-1.078592,0.284602
618,0.254205,-0.245569,0.150158
619,-0.616853,0.444051,0.069865
620,-2.125177,0.209811,-0.291924
621,-2.636443,0.870295,-0.263315
622,-1.799108,0.927572,-0.246858
623,-1.390807,0.495075,0.037007
624,-1.528786,0.619732,-0.095658
625,-1.645793,0.664376,-0.474667
626,-0.677144,0.527367,-0.341659
627,-0.324132,0.534162,-0.443899
628,1.109692,0.137778,-0.48533
629,1.365748,0.053484,-0.402337
630,1.985579,-0.351958,-0.192094
631,1.970695,-0.461206,-0.263487
632,1.870256,-0.54107,-0.284436
633,1.447405,-0.502097,-0.629904
634,0.91422,-0.409982,-0.181314
635,0.645793,-0.426033,0.17906
636,-0.727661,-0.783622,0.372325
637,-0.390973,-1.012521,0.413077
638,0.077185,-0.067072,-2.165239
639,-1.208018,2.099828,0.471369
640,0.0003,1.119778,-1.396177
641,0.545677,-0.328771,-0.642364
642,0.559319,-0.179314,-0.93759
643,-0.62075,0.945799,-0.639034
644,-2.932098,2.290595,-0.717425
645,-1.776788,-0.987848,0.258259
646,-2.054442,-1.099735,0.772475
647,-1.297768,-0.034998,1.107584
648,-0.42527,0.109585,0.745487
649,0.015088,-0.397272,0.125424
650,0.46182,-1.257328,0.108555
651,0.492051,-1.477645,0.471481
652,0.400224,-1.886735,0.533644
653,0.019884,-1.607607,0.486586
654,0.189562,-1.432956,0.518819
655,0.434573,-1.033986,0.354579
656,0.380396,0.207231,0.291849
657,0.213925,0.566103,0.1843
658,-0.552516,0.416512,0.586973
659,-2.61355,0.867449,0.006806
660,-3.524986,1.538341,-0.075335
661,-1.767244,0.517495,0.154072
662,-2.017823,0.240147,-0.101741
663,-1.675675,0.25263,-0.0637
664,-0.933162,0.422531,-0.348112
665,0.37166,0.544637,-0.7403
666,0.897747,0.50039,-0.68573
667,1.68735,0.334003,-0.507991
668,2.437389,-0.395718,-0.335949
669,2.46061,-0.549378,-0.443518
670,1.533205,-0.349453,-0.921312
671,1.113019,-0.255253,-0.679198
672,0.757142,-0.207544,-0.168645
673,-0.84522,-0.65119,0.748047
674,-0.678228,-0.703913,0.777528
675,-0.99617,-0.304608,0.601207
676,-0.402988,1.801622,0.940904
677,0.566708,1.053536,0.503415
678,1.192019,-0.21529,-1.103601
679,0.799964,0.641987,-0.887197
680,-0.042831,1.054734,-0.751966
681,-1.575127,2.010849,-0.954098
682,-2.462331,-0.328129,0.444844
683,-2.155398,-1.388075,0.638299
684,-1.330565,-0.344089,1.191523
685,-0.139302,0.42352,1.003235
686,0.243277,-0.361269,-0.048599
687,0.430184,-1.328487,0.437712
688,0.265702,-2.062517,0.592924
689,0.152431,-2.086707,0.660437
690,0.067014,-1.700496,0.626671
691,0.401526,-1.094152,0.360542
692,0.470916,-0.592665,0.659775
693,0.632317,0.260083,1.215965
694,0.427899,0.127162,0.294317
695,-1.924491,0.231611,-0.240076
696,-3.421548,0.743335,-0.017041
697,-2.649922,1.409298,-0.165275
698,-0.957713,1.239777,0.486558
699,-1.407516,0.800365,-0.069652
700,-1.762865,0.46003,-0.378269
701,-1.235161,0.229014,-0.591221
702,-0.27854,0.292443,-0.581061
703,0.975481,0.579361,-0.700066
704,1.792506,0.373822,-0.630901
705,2.203033,-0.172675,-0.44977
706,2.576467,-0.514985,-0.456901
707,2.113553,-0.427703,-0.883694
708,1.584828,-0.21797,-0.781192
709,0.770941,-0.038182,-0.123871
710,-0.763716,-0.590802,0.397113
711,-0.794598,-0.622777,0.633141
712,-0.700224,-0.496659,1.521004
713,-0.852703,2.063411,-2.56349
714,0.468959,1.473266,0.795423
715,1.105445,-0.117166,-0.91314
716,1.082129,-0.210486,-0.826689
717,0.611765,0.451185,-1.010908
718,-3.180058,3.558129,-0.698661
719,-3.803789,2.120218,0.077419
720,-2.08754,-1.08396,0.470007
721,-1.668372,-0.637877,1.31939
722,-0.323763,0.054713,1.16189
723,0.307737,-0.091533,0.201991
724,0.574958,-0.893617,0.000519
725,0.433403,-1.560727,0.609237
726,0.206667,-2.196538,0.811243
727,-0.342364,-2.159173,0.506019
728,0.107994,-1.532799,0.020273
729,0.571488,-1.092757,0.378957
730,0.659434,-0.460129,0.610138
731,0.517225,0.141233,0.187506
732,-0.395322,0.038921,0.087397
733,-1.899886,-0.220523,0.305409
734,-2.284973,0.564631,-0.081835
735,-2.266337,1.860314,0.330133
736,-0.962379,1.426246,0.203224
737,-1.998613,0.63382,-0.343362
738,-2.162226,0.192456,-0.353332
739,-1.5185,-0.234201,-0.35646
740,0.016492,0.79917,-0.614983
741,0.677669,0.791903,-0.828559
742,1.896276,0.415468,-0.815731
743,2.532482,-0.192792,-0.405559
744,2.953865,-0.5062,-0.4411
745,2.640574,-0.618709,-0.859912
746,1.863358,-0.218864,-1.112718
747,0.869698,-0.00184,-0.258098
748,0.006474,-0.193857,0.669526
749,-1.280512,-0.644307,0.709291
750,-0.808544,-0.577004,1.166228
751,-0.922823,1.532251,-1.140723
752,-0.496471,1.629073,-1.072439
753,0.934098,0.668629,-0.714285
754,1.021306,-0.249037,-0.949675
755,0.859019,0.12485,-0.903608
756,-0.688453,2.262167,-1.692818
757,-3.285978,2.070776,-0.666387
758,-1.939625,-1.029774,1.575243
759,-2.322946,-0.757327,1.424344
760,-0.339061,0.005887,1.150917
761,0.234397,-0.12826,-0.004086
762,0.43491,-0.484619,-0.148515
763,0.388258,-1.78871,0.671869
764,0.173003,-2.148996,0.654152
765,-0.085721,-2.201187,0.663042
766,0.473745,-1.005828,0.491118
767,0.494065,-0.817151,0.671534
768,0.457551,-0.422822,0.731846
769,-0.000615,0.30459,-0.040792
770,-1.42585,0.141481,0.752715
771,-2.422002,0.085178,-0.003483
772,-2.823352,1.780705,0.084262
773,-1.113141,1.520707,0.191657
774,-1.246082,1.325151,-0.189038
775,-1.636798,0.623239,-0.652802
776,-1.417911,0.17943,-0.275522
777,-0.597303,0.291592,-0.500545
778,0.387905,0.710755,-0.617928
779,1.450778,0.552188,-0.645029
780,2.231905,-0.041754,-0.493144
781,2.899641,-0.552125,-0.437204
782,2.577022,-0.690809,-1.080634
783,2.187935,-0.374101,-1.003326
784,0.949573,0.051151,-0.23809
785,-0.550919,-0.451471,0.371977
786,-1.067984,-0.464794,0.516401
787,-0.892427,-0.346862,0.966436
788,-0.831459,1.37493,-1.795707
789,-0.830789,1.597927,-1.632932
790,0.863695,0.802306,0.665803
791,1.051042,0.052002,-0.901047
792,1.03915,-0.033226,-0.918218
793,0.152178,1.173214,-1.159341
794,-3.737816,2.415871,0.083897
795,-2.540777,0.093529,0.251878
796,-2.199751,-1.494038,0.766133
797,-1.008747,-0.455582,1.28667
798,-0.4526,-0.145366,1.208506
799,0.223447,-0.208804,0.049684
800,0.548086,-1.211711,0.382063
801,0.394217,-1.683329,0.685538
802,-0.180752,-1.997412,0.694395
803,0.001793,-1.806588,0.452597
804,0.44798,-1.191355,0.400668
805,0.620695,0.002376,0.909744
806,0.491409,0.257874,0.472286
807,-0.412373,0.202824,-0.068187
808,-2.304588,-0.109206,0.345224
809,-3.358979,0.954267,0.414837
810,-1.97773,1.668509,-0.023953
811,-1.157219,1.107509,0.377141
812,-1.69752,0.714423,-0.38705
813,-1.584379,0.336908,-0.457204
814,-0.588686,0.253759,-0.604473
815,0.309899,0.554459,-0.76629
816,1.524015,0.570575,-0.877087
817,2.44983,0.064297,-0.616162
818,3.030478,-0.6546,-0.579136
819,2.624404,-0.891652,-0.966676
820,1.890833,-0.405832,-1.060284
821,0.839941,-0.035711,-0.167553
822,-0.125788,-0.234202,0.607559
823,-1.049662,-0.295273,0.76568
824,-0.865093,-0.131076,0.907169
825,-1.546562,0.647891,-0.21161
826,-0.736147,1.228092,-2.245601
827,1.520591,-0.027254,-0.955318
828,1.61281,-0.260194,-1.55481
829,1.496185,0.070755,-0.936229
830,-0.779679,2.484139,-0.428265
831,-2.470945,3.501404,-0.470269
832,-2.367535,0.971975,-0.677286
833,-2.358943,-1.398304,2.232916
834,-2.091228,-1.218519,1.031915
835,-0.575355,-0.531094,0.995473
836,0.247262,-0.212789,0.186166
837,0.467106,-0.732685,0.02028
838,0.34433,-1.694109,0.695998
839,-0.183382,-2.018625,0.506774
840,-0.011553,-1.868471,0.418705
841,0.339429,-1.261327,0.519835
842,0.522042,-0.431415,0.794421
843,0.620518,0.053017,0.890254
844,0.449791,0.011186,0.33853
845,-1.104051,-0.12964,0.116454
846,-2.394726,-0.136209,0.226375
847,-2.918998,1.670544,-0.322599
848,-0.842166,1.653021,0.445125
849,-0.7603,1.536094,0.477663
850,-1.224983,0.583053,-0.494242
851,-1.280059,0.294852,-0.524388
852,-0.58801,-0.113819,-0.495317
853,0.90451,0.392938,-0.482687
854,1.730065,0.246389,-0.592771
855,2.37494,-0.319247,-0.389413
856,2.743556,-0.845494,-0.411546
857,2.66237,-0.97673,-0.6103
858,1.55525,-0.118948,-0.684842
859,0.6378,0.192627,0.105739
860,-0.303906,-0.162412,0.354174
861,-1.089661,-0.051945,0.80134
862,0.051948,-0.556936,0.382178
863,0.143695,0.373513,-0.68849
864,-1.365831,1.992664,0.106177
865,-0.037585,0.894606,0.672647
866,1.425062,-0.632637,-1.205874
867,1.772562,-0.655479,-1.246512
868,0.3532,1.110254,-1.269787
869,-3.72252,1.502483,1.739725
870,-2.153716,-0.535669,1.149904
871,-2.32612,-0.868315,1.114903
872,-1.146616,-0.202346,1.229836
873,-0.120114,-0.130617,0.884488
874,0.322456,-0.562639,-0.135663
875,0.778893,-1.247142,0.51349
876,-0.108642,-1.929791,0.830749
877,-0.114469,-2.009001,0.449621
878,0.376588,-1.529426,0.427316
879,0.54472,-1.303086,0.617762
880,0.456938,-0.505292,0.788472
881,0.601978,0.177027,0.762638
882,0.09822,0.126718,-0.352822
883,-1.295085,0.116247,0.10839
884,-3.550619,1.050205,0.186236
885,-2.372574,1.536352,-0.383009
886,-0.892501,1.332739,0.464024
887,-1.564722,0.691942,-0.369273
888,-1.541029,0.404566,-0.495633
889,-0.988594,-0.037007,-0.632204
890,0.089863,0.212678,-0.647322
891,1.391585,0.556494,-0.610907
892,2.419737,-0.10592,-0.395599
893,2.717941,-0.644898,-0.344017
894,2.646677,-0.900109,-0.465181
895,1.897847,-0.260047,-0.96791
896,1.378515,-0.109795,-0.672317
897,0.080378,0.033983,0.462602
898,-1.200833,0.085626,0.854518
899,-1.242846,0.138183,1.326959
900,-1.973758,1.002635,-0.727845
901,-0.810715,1.126747,-2.759187
902,1.500287,0.279347,1.169933
903,2.008659,-0.403395,-1.608064
904,1.212518,1.054147,-1.012669
905,0.215519,1.278064,-0.411431
906,-1.823686,2.577566,-0.554995
907,-2.287794,-0.624286,0.586912
908,-2.460817,-1.275241,1.048607
909,-1.91858,-1.137598,0.793789
910,-0.059206,-0.144845,0.971483
911,0.784049,-0.71163,0.132804
912,0.846256,-0.980252,0.398893
913,-0.066876,-1.719865,0.848861
914,0.075089,-1.836559,0.399327
915,0.313217,-1.559134,0.362146
916,0.608233,-1.171297,0.434399
917,0.546545,-0.717073,0.693231
918,0.602299,-0.104506,0.716524
919,0.351375,-0.27778,0.071646
920,-0.726141,-0.294559,-0.160016
921,-3.004675,-0.1312,0.114448
922,-2.946363,0.80516,0.010033
923,-1.253771,1.848682,0.057346
924,-0.745836,1.436088,0.725761
925,-1.37755,0.921902,-0.420507
926,-1.447328,0.072283,-0.416896
927,-0.586237,-0.380963,-0.362777
928,0.518847,0.21193,-0.549815
929,1.69325,0.500259,-0.642495
930,2.184592,0.005114,-0.403094
931,2.552693,-0.546879,-0.329661
932,2.327265,-0.839813,-0.779997
933,2.055132,-0.459521,-0.919841
934,0.01475,0.237523,0.519269
935,-0.650314,0.077861,0.589534
936,-1.276788,0.10346,0.792186
937,-0.192172,-0.520488,-0.47737
938,0.613627,-0.448733,-0.676145
939,-2.391607,2.590042,-2.676094
940,-0.861261,0.923272,0.865243
941,0.901953,-0.824429,-1.084309
942,1.616046,-0.523268,-0.874404
943,0.115588,0.832793,-1.974891
944,-3.929705,3.198084,-1.759376
945,-2.142298,-1.040409,2.517133
946,-1.971918,-0.446774,1.219021
947,-0.666328,0.197965,1.111526
948,0.484837,0.358997,0.303153
949,0.392743,-0.796508,0.349393
950,0.113638,-2.098015,0.866648
951,-0.128924,-2.320722,0.620738
952,0.079224,-1.789719,0.430831
953,0.455791,-1.20934,0.41272
954,0.475814,-0.770588,0.641034
955,0.572164,-0.073268,0.696454
956,-0.253848,-0.162499,-0.066076
957,-0.981288,-0.185709,0.548085
958,-2.338911,-0.242148,0.256783
959,-2.389121,2.15386,0.090991
960,-1.562708,2.00017,0.423776
961,-0.939661,1.502131,0.212136
962,-1.913308,0.556333,-0.552032
963,-1.755201,-0.423047,-0.191017
964,-0.719879,-0.309661,-0.303359
965,0.305606,0.556271,-0.796992
966,1.604596,0.562482,-0.904032
967,2.413824,-0.018848,-0.63562
968,2.964328,-0.49701,-0.577961
969,2.561961,-0.907451,-1.02871
970,2.065732,-0.311734,-1.578026
971,0.913619,0.02536,-0.255581
972,0.643154,0.053588,0.284717
973,-1.528586,-0.443762,0.870203
974,-3.056893,1.237907,0.192339
975,-3.704979,2.253934,-0.979613
976,0.989729,0.520254,-0.836047
977,3.043981,0.019334,-1.244184
978,2.302857,-0.271155,-1.725282
979,0.594825,0.992265,-0.229712
980,-0.800092,1.822997,-0.402187
981,-5.467978,5.226085,-1.407506
982,-2.791904,-1.148202,1.014503
983,-2.156934,-1.045054,1.066151
984,-1.205774,-0.551083,1.349995
985,0.006658,-0.241456,0.133834
986,0.58868,-0.956531,0.129297
987,0.323252,-1.841148,0.763121
988,-0.062804,-2.279846,0.617209
989,-0.000929,-2.07021,0.531054
990,0.396699,-1.319892,0.466909
991,0.549125,-0.459106,0.600356
992,0.548332,0.371895,0.883549
993,-0.168025,-0.014683,-0.476687
994,-1.764601,-0.14827,0.538025
995,-2.736562,0.131829,0.077194
996,-2.770257,1.898958,-0.111206
997,-1.168889,1.457728,0.299242
998,-1.507875,1.03979,-0.303649
999,-1.706434,0.498746,-0.507335
1000,-1.000271,0.046681,-0.569155
1001,0.575475,0.666401,-0.758517
1002,1.3141,0.714824,-0.794324
1003,2.224958,0.19445,-0.737233
1004,2.69602,-0.428726,-0.614878
1005,2.727113,-0.807084,-0.78727
1006,2.391799,-0.572652,-1.055935
1007,1.995927,-0.226514,-0.944544
1008,0.529764,-0.026992,0.327919
1009,-0.430058,-0.392407,0.383644
1010,-1.032852,-0.263949,0.658754
1011,-0.653285,-0.10173,0.92263
1012,-1.750828,2.464958,-1.208894
1013,1.037906,0.373237,1.559801
1014,1.242395,0.140001,-1.175136
1015,1.63262,-0.463177,-1.306237
1016,0.44725,1.607372,-1.227706
1017,-0.817656,2.534671,-1.304832
1018,-3.99067,2.492607,0.5083
1019,-2.639911,-1.359529,1.922263
1020,-2.167465,-1.010699,1.268601
1021,-0.877762,-0.415756,1.063844
1022,0.540741,-0.05583,0.160797
1023,0.766246,-0.431123,-0.049059
1024,-0.098443,-2.212607,0.831369
1025,-0.571763,-2.198965,0.928282
1026,-0.003217,-1.874522,0.656378
1027,0.566377,-0.82426,0.328537
1028,0.634263,-0.73122,0.453168
1029,0.706216,-0.113947,0.825798
1030,0.364534,-0.196805,-0.124999
1031,-0.550896,-0.391488,-0.185065
1032,-1.445177,-0.275438,0.607235
1033,-2.933341,0.840972,0.307767
1034,-2.104084,2.271409,0.064507
1035,-1.242693,1.995011,0.590447
1036,-1.573842,0.660405,-0.818798
1037,-1.401373,-0.402619,-0.112483
1038,-0.448374,-0.38151,-0.404162
1039,0.298099,0.419613,-0.531305
1040,1.476149,0.565263,-0.803728
1041,2.22598,0.054674,-0.746506
1042,2.931918,-0.584915,-0.579195
1043,2.849754,-0.835285,-0.830306
1044,2.41442,-0.496416,-1.243053
1045,1.219706,-0.040079,-0.501143
1046,0.388528,0.056473,0.448663
1047,-0.663341,-0.270234,0.433755
1048,-1.546542,0.081829,0.336986
1049,-0.904699,0.201456,1.054318
1050,-2.51061,2.377546,0.090471
1051,-0.326286,0.841082,-2.497781
1052,1.865868,0.047855,0.175869
1053,2.415336,-0.454068,-1.692513
1054,1.527614,0.465514,-0.72384
1055,-0.926413,1.269661,-0.608173
1056,-4.767087,4.043295,-0.394341
1057,-2.489295,0.604557,-0.018306
1058,-2.500551,-1.257074,1.632639
1059,-1.029326,-0.373568,1.173968
1060,0.311097,0.102336,0.695246
1061,0.66994,-0.643206,0.118186
1062,0.123832,-1.838331,0.784748
1063,-0.274425,-2.332124,0.646287
1064,0.308377,-1.533883,0.360027
1065,0.662903,-1.085595,0.411758
1066,0.643223,-0.370165,0.792977
1067,0.688346,-0.090345,0.690036
1068,-0.043484,-0.18986,-0.477882
1069,-1.909597,-0.334089,0.590107
1070,-2.837371,-0.443963,0.267784
1071,-2.995927,2.419238,-0.281679
1072,-1.269273,1.852264,0.663931
1073,-1.543856,1.618097,-0.004687
1074,-1.860877,0.488283,-0.708117
1075,-0.887875,-0.154788,-0.610316
1076,-0.483445,0.258662,-0.750666
1077,0.815101,0.904696,-0.936312
1078,2.510519,0.308165,-0.648378
1079,2.843968,-0.430021,-0.553723
1080,2.756274,-0.658993,-0.606916
1081,2.237885,-0.442161,-1.071084
1082,1.272153,0.136229,-0.469927
1083,0.861811,0.24849,-0.043247
1084,-1.249715,0.164468,1.077768
1085,-1.232215,0.202683,1.075934
1086,-1.054723,0.329781,0.516002
1087,-1.046791,1.312434,-1.963484
1088,0.692119,0.413907,0.59304
1089,1.102254,0.040034,-0.945346
1090,1.086368,-0.2721,-1.01847
1091,0.426273,1.316874,-1.242145
1092,-2.385911,3.449438,-2.227826
1093,-2.795281,0.437222,1.535197
1094,-2.318809,-1.332969,1.452302
1095,-1.567138,-0.659896,1.120308
1096,-0.110986,-0.141431,0.930491
1097,0.453835,-0.172267,-0.013508
1098,0.747561,-1.285917,0.275084
1099,0.016482,-2.09547,0.646494
1100,-0.540723,-2.165752,0.732051
1101,0.103068,-1.633327,0.348358
1102,0.525225,-1.012655,0.374089
1103,0.651415,-0.796122,0.709563
1104,0.76968,-0.013227,0.787437
1105,0.24045,0.040647,-0.152935
1106,-0.901872,-0.084552,0.31016
1107,-3.044281,0.587737,0.388934
1108,-2.013632,1.775833,-0.336441
1109,-1.235512,1.51794,0.068996
1110,-1.391954,1.152919,0.093516
1111,-1.800003,0.046024,-0.45728
1112,-1.426496,-0.235448,-0.22522
1113,-0.34335,0.142148,-0.365774
1114,1.350304,0.748816,-0.693392
1115,1.832644,0.55729,-0.69509
1116,2.451309,-0.055429,-0.521493
1117,2.87256,-0.830648,-0.788691
1118,2.441479,-0.551976,-1.257519
1119,2.071093,-0.19941,-1.009888
1120,0.343248,0.018223,0.453188
1121,-0.949487,-0.503844,0.638874
1122,-1.761168,-0.324725,1.394882
1123,-5.60267,1.147997,-1.822599
1124,0.801946,0.246154,-1.111223
1125,2.853254,0.778156,3.298527
1126,3.281879,0.092384,-1.778196
1127,1.897281,0.82733,-0.530112
1128,-0.157767,2.283164,0.241946
1129,-5.459247,5.318789,-1.963761
1130,-2.148005,-0.345415,-0.799755
1131,-2.556878,-2.167661,1.467849
1132,-2.047517,-1.620158,1.251682
1133,-0.366026,-0.417146,1.324464
1134,0.228498,-0.128968,0.45838
1135,0.875526,-0.271402,-0.077125
1136,0.214431,-1.262951,0.835261
1137,-0.363546,-2.133676,0.798725
1138,0.102606,-2.293722,0.49611
1139,0.466628,-1.567753,0.313368
1140,0.685167,-0.833669,0.4238
1141,0.573391,-0.050291,0.767429
1142,0.478791,-0.211837,0.580682
1143,-0.15321,-0.40081,-0.521016
1144,-1.962853,-0.294666,0.184617
1145,-3.644418,0.394598,0.047079
1146,-2.198974,2.201507,0.079803
1147,-1.168914,2.286354,0.480924
1148,-1.19997,1.591935,-0.438507
1149,-1.648397,0.413667,-0.615187
1150,-1.121986,-0.477181,-0.420592
1151,0.523507,0.482827,-0.348043
1152,1.14772,0.690418,-0.433279
1153,2.356704,0.124087,-0.387354
1154,2.588832,-0.215476,-0.294048
1155,2.808771,-0.812244,-0.584489
1156,2.175584,-0.160708,-0.528333
1157,1.569167,0.10746,-0.368544
1158,0.554088,0.191263,0.303873
1159,-1.014381,-0.270535,0.401054
1160,-0.969065,-0.183316,0.457917
1161,-0.320156,-0.258047,0.601437
1162,0.362196,0.289334,-0.148264
1163,-3.744878,2.634934,-0.805167
1164,0.583017,0.408789,-0.977347
1165,1.989009,-0.556482,-1.523536
1166,2.078929,0.170486,-0.684201
1167,0.917813,0.915402,-0.474966
1168,-4.520907,3.314692,-0.124019
1169,-2.728671,0.452226,0.836422
1170,-1.951001,-0.877489,1.22245
1171,-0.707044,-0.009861,1.067862
1172,0.471596,0.238873,0.564786
1173,0.565012,-0.665818,0.079249
1174,0.309452,-1.781342,0.683546
1175,-0.17273,-2.244738,0.641442
1176,0.034919,-1.984996,0.544062
1177,0.498343,-1.394692,0.360704
1178,0.518776,-1.073555,0.565429
1179,0.589493,-0.189698,0.788924
1180,0.427232,-0.119645,0.390351
1181,-1.280515,-0.29295,0.18174
1182,-2.61007,-0.276702,0.203708
1183,-2.970629,0.020748,0.318028
1184,-1.924005,2.210898,-0.141032
1185,-0.843431,1.664859,0.605462
1186,-1.031116,1.596525,0.038301
1187,-1.360203,-0.290438,-0.301875
1188,-0.930206,-0.383599,-0.285592
1189,-0.450249,-0.191482,-0.352079
1190,1.218862,0.461909,-0.534688
1191,1.849729,0.155585,-0.426364
1192,2.252366,-0.197882,-0.386293
1193,2.560873,-0.548312,-0.290691
1194,2.40479,-0.812655,-0.708071
1195,2.142135,-0.55631,-0.869248
1196,0.742283,0.215468,-0.02864
1197,-1.028931,-0.223886,0.534999
1198,-1.407213,-0.222921,1.640568
1199,-2.440798,1.061338,-0.8008
1200,-2.790574,1.518457,-1.97125
1201,1.683456,0.360607,0.58946
1202,1.876409,-0.099515,-1.312778
1203,1.788121,-0.403742,-1.170428
1204,0.06178,1.184271,-0.659378
1205,-1.530024,2.452801,-0.846551
1206,-1.998299,0.354134,-0.246217
1207,-2.544477,-1.516062,2.569651
1208,-1.403836,-0.687627,1.067254
1209,-0.049922,0.007398,0.818257
1210,0.860095,-0.131637,0.059416
1211,0.767823,-0.493926,0.030003
1212,0.182469,-2.043262,0.703885
1213,-0.191269,-2.076556,0.729336
1214,0.26234,-1.584027,0.554994
1215,0.582101,-0.986662,0.414975
1216,0.545723,-0.280142,0.906009
1217,0.643086,0.23402,0.84249
1218,0.141418,-0.100608,-0.330464
1219,-1.572608,-0.565199,-0.08295
1220,-3.124504,0.130237,-0.16109
1221,-1.95544,1.706532,0.381422
1222,-0.97185,1.852451,0.349188
1223,-0.734412,1.645385,0.042063
1224,-1.288321,1.082948,-0.715629
1225,-1.448499,0.091237,-0.16506
1226,-0.433644,-0.266684,-0.192734
1227,0.085279,0.097904,-0.217815
1228,0.429014,0.418189,-0.396802
1229,1.691761,0.243269,-0.524341
1230,2.307964,-0.23695,-0.277777
1231,2.547656,-0.435689,-0.118519
1232,2.627038,-0.694488,-0.522074
1233,1.686126,-0.107273,-0.557568
1234,1.04922,0.138251,-0.34952
1235,-0.742379,-0.337378,0.340282
1236,-0.724626,-0.292244,0.327478
