,userAcceleration.x,userAcceleration.y,userAcceleration.z
0,0.77894,0.05181,-1.657163
1,0.61378,-0.112152,-0.879374
2,0.41366,-0.630365,-0.428647
3,0.372556,-0.915796,-0.859046
4,0.139503,-1.002214,-0.005295
5,-0.055098,-1.219167,0.259548
6,-0.155519,-1.049981,-0.316333
7,-0.06467,-0.23522,-0.550864
8,0.097682,0.776768,0.245091
9,-0.072626,1.064809,0.531422
10,0.370051,1.50794,-0.027213
11,0.694538,1.800218,-0.191259
12,0.74464,1.499192,-0.283948
13,0.507338,1.227577,0.1761
14,0.064001,1.221147,0.022221
15,-0.092265,0.734191,0.055803
16,-0.057178,0.046089,0.168154
17,-0.064265,-0.634409,0.497873
18,-0.721129,-1.366299,0.815263
19,-1.335087,-1.880696,1.03219
20,-1.34323,-1.275105,0.835558
21,-0.908164,-0.830821,0.871184
22,-0.601818,-0.497126,0.440625
23,-0.295409,-0.286693,-0.104722
24,0.616272,0.092984,-0.100414
25,0.343955,-0.281094,0.221025
26,0.262113,0.802976,0.596327
27,1.207936,4.075027,-0.530593
28,-0.837784,1.769654,1.648087
29,-1.228201,-0.397242,1.062059
30,-0.673914,-0.735335,0.783583
31,-0.575359,-0.75196,0.123004
32,-0.30676,-0.060752,0.299164
33,0.039135,1.065626,0.625859
34,0.529597,1.775756,-0.131822
35,2.786483,0.542413,-1.723858
36,1.495199,0.166334,-0.835385
37,1.270757,0.123838,-0.880859
38,0.867044,-0.439146,-0.863939
39,0.501946,-1.003758,-0.590635
40,0.230119,-1.305188,-0.111212
41,0.057126,-1.477909,-0.033084
42,-0.286892,-0.992747,-0.542085
43,-0.393754,-0.543765,-0.797085
44,-0.522454,-0.199993,-0.264815
45,-0.072359,0.540603,0.316514
46,0.19343,1.03371,1.231432
47,-0.043773,1.076564,0.78915
48,1.287434,2.130327,-0.494702
49,1.13456,1.446384,-0.698741
50,0.830826,1.466356,-0.073823
51,0.913822,0.603563,0.614069
52,0.30217,-0.09216,0.546105
53,-0.817154,-1.183344,0.347959
54,-1.131385,-1.60355,1.42906
55,-1.40427,-1.164528,0.838149
56,-0.963001,-0.85683,0.792554
57,-0.832053,-0.866839,0.801024
58,-0.494746,-0.698398,1.095204
59,-0.328695,-0.384912,0.755891
60,-0.287804,0.014191,0.338603
61,-0.122076,0.36323,-0.13892
62,0.204247,0.10223,-0.464836
63,0.821825,2.144526,0.382385
64,1.429381,3.202639,0.908817
65,-0.742933,1.034393,1.517482
66,-0.416509,-0.310523,-0.136214
67,-0.432681,-0.782989,1.170987
68,-0.702686,-1.052116,0.108925
69,-0.047607,-0.468751,0.388405
70,0.721567,1.282671,0.744633
71,-0.111374,2.065866,-0.205826
72,2.047593,0.844961,-0.335857
73,1.825208,-0.101194,-1.465631
74,0.548727,-0.023482,-1.484651
75,0.291981,0.039655,-1.04832
76,-0.139712,-0.300609,-0.558808
77,0.089906,-0.811058,-0.780512
78,0.108507,-1.205806,-0.148925
79,0.052139,-1.576202,0.140287
80,0.049306,-1.481388,-0.057129
81,0.114521,-0.848535,-0.508237
82,0.257181,0.319309,-0.002059
83,-0.096429,1.069947,0.207961
84,-0.074302,1.30995,0.160104
85,0.807963,2.21599,-0.439103
86,0.846901,1.977126,-0.313961
87,0.447226,1.675871,-0.089174
88,0.144309,1.138396,0.250003
89,0.13752,0.563283,-0.005653
90,0.050404,-0.101308,-0.053652
91,-0.003807,-0.882953,0.273075
92,-0.803759,-1.66583,0.86423
93,-1.033953,-1.591251,0.814421
94,-1.201117,-0.896824,0.807245
95,-0.714631,-0.35998,0.717253
96,-0.349187,-0.106111,0.528311
97,-0.08523,-0.012465,0.170331
98,0.60974,0.030764,-0.031152
99,0.672327,-0.114497,0.541513
100,0.736609,2.077883,-0.691972
101,0.181375,2.037517,-0.714886
102,-1.490771,0.69378,-0.010569
103,-0.82974,-0.048737,2.112586
104,-0.849017,-0.762656,1.140715
105,-0.403167,-0.171125,0.893741
106,0.082081,0.506705,0.891819
107,0.260609,1.399941,0.352607
108,1.305222,1.585764,0.188747
109,1.932369,0.313386,-1.763832
110,0.874075,-0.386499,-1.407713
111,0.448943,-0.37965,-0.294464
112,-0.143883,-0.146393,-0.13635
113,-0.001093,-0.742287,-0.93872
114,0.113682,-1.453239,-0.382108
115,0.224588,-1.685073,-0.00356
116,-0.097643,-1.425472,-0.017365
117,-0.234261,-0.653458,-0.986822
118,-0.042087,0.377526,-0.311732
119,-0.044111,0.919129,0.107313
120,0.044881,1.407846,0.183696
121,1.13983,2.117355,0.003921
122,1.488461,1.729758,-0.308995
123,1.024786,1.243325,-0.200079
124,0.239248,1.250857,-0.328149
125,0.422001,0.56133,-0.010445
126,0.357664,0.099703,0.226819
127,0.196741,-0.504757,0.572654
128,-0.334775,-0.903407,0.972507
129,-1.40169,-1.253328,1.536689
130,-2.08621,-1.362304,1.324913
131,-1.328802,-0.737018,1.204202
132,-0.825816,-0.352252,0.534527
133,-0.387439,-0.358962,0.128463
134,0.228881,-0.760893,-0.036046
135,0.842377,-0.376493,-0.043873
136,0.654597,0.632293,0.55789
137,1.399811,3.3132,-1.208641
138,-1.000134,1.227029,0.538188
139,-0.653054,-0.124287,1.880407
140,-0.858623,-0.790352,0.965086
141,-0.451643,-0.214092,0.78831
142,-0.064113,0.99133,0.885994
143,0.857731,1.966963,0.351393
144,1.991964,1.53316,-0.107721
145,1.149105,-0.303389,-1.689646
146,0.71252,-0.511728,-0.851226
147,0.349113,-0.478322,-0.254847
148,-0.079307,-0.372481,-0.775531
149,0.097816,-0.845346,-0.680911
150,0.286086,-1.415978,-0.175108
151,0.226132,-1.789688,-0.233477
152,-0.089006,-1.034214,-0.438891
153,-0.293464,-0.209304,-0.664601
154,0.104098,0.9083,0.175597
155,-0.189735,1.122803,0.320724
156,-0.089226,1.170011,0.115047
157,1.214788,2.007032,-0.515153
158,1.390206,1.37221,-0.095252
159,1.125496,1.250968,0.014152
160,0.290426,1.229792,-0.094116
161,0.100819,0.648376,0.055397
162,0.074945,0.2674,0.339524
163,0.021776,-0.381916,0.612036
164,-0.480575,-1.174663,1.057874
165,-1.373397,-1.863105,1.390667
166,-2.139094,-1.40466,0.852535
167,-1.257234,-0.761201,0.974197
168,-0.525594,-0.378312,0.488012
169,-0.396563,-0.448773,0.188382
170,0.073217,-0.488739,0.018643
171,0.902981,0.121716,-0.048447
172,0.886302,1.38585,0.396524
173,0.989915,3.416482,-0.931768
174,-1.063384,0.814264,1.022216
175,-0.997632,-0.238859,1.197474
176,-0.709069,-0.840792,1.514162
177,-0.545003,-0.61523,0.435864
178,0.067674,0.549842,0.947555
179,0.150722,1.969476,0.091376
180,2.308224,1.25852,-0.485942
181,1.959909,0.020322,-1.446068
182,0.782513,-0.571988,-0.938936
183,0.131904,-0.213593,-0.342981
184,-0.017591,-0.326827,-0.90491
185,0.062257,-0.976097,-0.382559
186,0.155891,-1.280301,-0.015512
187,0.201213,-1.829593,0.061811
188,-0.002296,-1.157905,-0.26973
189,-0.158283,-0.232605,-1.166612
190,0.12477,0.867014,-0.150649
191,-0.065628,1.042161,-0.024768
192,0.161443,1.21267,0.027517
193,1.481946,2.103494,0.167001
194,1.764875,2.115295,0.276686
195,1.139226,1.581159,-0.049261
196,0.34318,1.014961,-0.109666
197,0.227438,0.429716,0.075154
198,0.274802,0.09625,0.297286
199,0.057503,-0.535931,0.744416
200,-0.467591,-0.899422,1.01097
201,-1.230927,-1.252937,0.91997
202,-1.776423,-1.364375,1.298544
203,-1.548755,-0.805127,1.036144
204,-0.985754,-0.394855,0.431929
205,-0.593479,-0.387858,0.284477
206,-0.082273,-0.362418,-0.286838
207,0.645639,-0.444407,-0.137263
208,1.341423,1.502601,0.447797
209,1.306091,2.658926,0.431169
210,-1.186385,0.630095,-0.296911
211,-0.290076,0.519719,1.228387
212,-0.594643,-0.607855,1.624307
213,-0.540416,-0.618058,0.770323
214,0.199141,0.462892,0.792311
215,0.79027,1.727729,-0.016709
216,2.089211,1.577551,-0.245494
217,2.111092,0.474524,-1.482881
218,0.204022,-0.46536,-0.975344
219,0.162653,-0.200916,-0.319451
220,-0.381779,-0.28489,-0.770321
221,0.118707,-0.704299,-0.840745
222,0.083077,-1.325656,-0.195542
223,0.174736,-1.72709,0.029164
224,0.068591,-1.540238,0.011596
225,-0.0999,-0.959636,-0.266742
226,-0.238182,-0.239126,-0.74369
227,0.132876,0.743033,0.066329
228,-0.081771,0.706262,0.279192
229,0.692055,1.399823,0.084018
230,1.873185,1.864779,0.233652
231,1.84533,1.640279,0.180318
232,0.332445,1.539327,-0.546993
233,0.345579,0.799546,0.046668
234,0.21512,0.169879,0.278256
235,0.082264,-0.435929,0.577286
236,-0.421102,-0.611954,0.793289
237,-0.898632,-0.619156,0.863002
238,-1.579155,-1.272606,1.512275
239,-1.826856,-1.224239,1.196703
240,-0.89188,-0.707388,0.954141
241,-0.414382,-0.30383,0.190751
242,0.035043,-0.738106,-0.188352
243,0.755929,-0.656102,0.130748
244,0.988527,0.270881,0.357463
245,1.135424,3.022521,-0.919494
246,0.878613,2.861526,-1.120608
247,-0.666229,0.671052,0.551747
248,-0.61843,-0.47943,2.334432
249,-0.890515,-0.74986,1.423932
250,-0.199778,0.351759,0.800277
251,0.287935,1.076851,0.608845
252,1.373048,1.500927,-0.287865
253,2.967022,0.182655,-1.465834
254,1.200349,-0.301866,-1.502335
255,0.383507,-0.15481,-1.044164
256,0.068002,-0.164443,-0.488251
257,-0.165509,-0.517536,-0.673634
258,-0.036628,-0.966015,-0.48529
259,0.065823,-1.549477,-0.045944
260,-0.124568,-1.674044,-0.145845
261,-0.222857,-0.887872,-0.690119
262,-0.120551,0.198039,-0.514282
263,0.052626,1.177971,0.105976
264,-0.031281,1.329342,0.08312
265,0.641099,1.807507,-0.093652
266,1.385331,1.951667,-0.278693
267,1.273765,1.110025,0.240313
268,0.662319,1.331251,-0.145106
269,0.371227,0.736722,-0.042076
270,0.140981,0.050062,0.216664
271,0.145974,-0.223071,0.520406
272,-0.163133,-0.583945,0.770318
273,-0.844939,-0.663217,1.106488
274,-1.589316,-1.043053,1.043628
275,-1.798575,-1.122866,1.505382
276,-1.049117,-0.636293,1.019701
277,-0.668983,-0.337687,0.276458
278,-0.329044,-0.503953,-0.170533
279,0.42759,-0.518217,-0.23428
280,1.006781,0.196887,-0.011615
281,1.841628,4.156229,-1.080017
282,-0.655098,0.953671,0.913603
283,-1.224451,-0.143677,0.363153
284,-0.648689,-0.742886,1.82939
285,-0.68674,-0.190264,0.678461
286,-0.116594,0.834182,0.792686
287,0.078571,1.416434,0.252111
288,0.484331,1.64134,-0.070473
289,2.666632,0.422229,-1.881741
290,1.263474,-0.483604,-1.000938
291,0.954229,-0.628388,-0.798436
292,-0.046769,-0.47738,-0.237047
293,-0.020007,-0.489724,-1.081778
294,-0.024127,-0.750241,-0.678575
295,0.020003,-1.408667,0.211488
296,-0.275411,-1.581262,-0.003052
297,-0.196646,-0.961613,-0.609472
298,-0.163468,0.074934,-0.509439
299,-0.000593,0.812902,0.019921
300,0.032006,1.161939,0.046051
301,0.67774,1.631263,0.099821
302,1.707108,1.97513,-0.244289
303,1.457299,1.210393,0.44669
304,0.651644,1.081489,-0.018242
305,0.281952,0.822442,-0.076134
306,0.151853,0.217237,0.192648
307,0.052134,-0.347064,0.663321
308,-0.428204,-0.671538,0.74622
309,-1.036745,-0.665889,1.007414
310,-1.49751,-1.033358,1.023645
311,-1.636586,-0.927297,1.261432
312,-1.008965,-0.538534,0.853827
313,-0.620085,-0.259681,0.235223
314,-0.129239,-0.498975,-0.338467
315,0.787846,-0.396234,0.061633
316,0.468463,-0.223655,0.539476
317,1.227749,3.873698,-2.070802
318,0.086217,1.353914,1.147562
319,-0.980015,0.634768,1.153025
320,-0.515958,-0.350412,1.811487
321,-0.728463,-0.730648,1.059584
322,-0.368663,0.094728,0.600449
323,0.014313,0.981591,0.619708
324,0.776176,1.457086,0.105332
325,3.272865,0.671551,-2.632186
326,1.451698,-0.572946,-1.393404
327,0.845015,-0.750748,-0.987043
328,0.349706,-0.516652,0.067782
329,-0.107175,-0.29271,-0.963407
330,-0.160241,-1.019065,-0.25426
331,-0.034095,-1.562688,0.090743
332,-0.211801,-1.372015,-0.185714
333,-0.237132,-0.696623,-0.758953
334,-0.002646,0.431147,-0.194939
335,0.005607,0.930155,0.22423
336,-0.041996,0.987566,0.275981
337,0.723019,1.325728,-0.20744
338,1.702765,1.623735,-0.158909
339,1.720096,1.429302,0.172471
340,0.667664,1.479105,-0.247962
341,0.289952,1.112438,-0.059882
342,0.058061,0.376897,0.079675
343,0.057481,-0.273321,0.534439
344,-0.322272,-0.945496,0.853387
345,-1.150954,-1.199961,1.05838
346,-1.685108,-1.083992,1.320956
347,-1.612763,-0.745288,1.143129
348,-0.796486,-0.361505,0.823325
349,-0.594198,-0.108231,0.253631
350,-0.284508,-0.319498,-0.524592
351,0.724231,-0.265105,-0.066542
352,1.004701,0.471854,0.724255
353,1.097033,3.084816,-1.317779
354,-0.457935,1.112585,1.05367
355,-0.94456,0.455799,0.01002
356,-0.427693,-0.288735,1.976459
357,-0.668254,-0.557308,0.720114
358,-0.018651,0.403025,0.659819
359,0.298481,1.436266,0.189387
360,1.052167,1.333545,0.166604
361,2.322782,0.042743,-1.433817
362,0.855974,-0.231198,-1.198087
363,0.547557,-0.275786,-1.033573
364,0.269795,-0.374493,-0.118658
365,0.161935,-0.597035,-0.920203
366,0.066512,-0.966204,-0.762044
367,-0.058001,-1.482666,-0.11023
368,-0.095839,-1.472953,0.08684
369,-0.278692,-1.173254,-0.07979
370,-0.207965,-0.629796,-0.720354
371,0.088025,0.599978,-0.239222
372,0.087161,1.366099,0.07504
373,0.402054,1.543059,0.09921
374,1.169409,1.921143,-0.233377
375,1.395145,1.076523,0.244127
376,0.697656,1.162454,-0.410296
377,0.509133,0.774766,-0.080404
378,0.316405,0.304413,0.164171
379,0.035387,-0.365325,0.726228
380,-0.420149,-0.68731,1.050314
381,-0.715925,-0.709005,1.212579
382,-1.600048,-0.99362,1.317578
383,-1.586474,-0.7212,1.36096
384,-1.32129,-0.624262,1.13236
385,-0.661116,-0.189926,0.123368
386,-0.259303,-0.50146,-0.267683
387,0.653601,-0.382156,-0.135427
388,0.66299,0.003139,0.305773
389,1.241161,3.300595,-1.507635
390,1.05669,2.942226,-1.231356
391,-0.839067,0.710581,1.284341
392,-0.453819,-0.294688,1.437687
393,-0.592316,-0.716419,0.725186
394,-0.155086,0.11946,0.269267
395,0.342143,0.738658,0.308826
396,0.850445,0.826401,0.27237
397,1.842981,0.406959,-0.697993
398,1.148684,0.275335,-1.151898
399,0.740742,-0.165204,-1.085825
400,0.420456,-0.352439,-0.460007
401,0.231321,-0.460846,-0.870555
402,0.072122,-0.888673,-0.721172
403,-0.098431,-1.342188,-0.086712
404,-0.178852,-1.545784,0.034657
405,-0.272394,-1.228717,-0.137486
406,-0.155855,-0.573303,-0.506431
407,0.169329,0.652415,-0.10946
408,0.1111,1.0884,-0.034267
409,0.650132,1.436312,-0.136796
410,1.371716,1.936518,-0.368934
411,1.382457,1.531249,0.373567
412,0.924382,1.226231,-0.019113
413,0.381423,0.988868,-0.066981
414,0.294711,0.56637,0.080983
415,0.22392,-0.006069,0.362057
416,-0.116853,-0.484231,0.719666
417,-0.672288,-0.632018,1.00201
418,-1.344181,-0.88242,0.936712
419,-1.661008,-0.939812,1.347258
420,-1.114466,-0.533605,0.804656
421,-0.685209,-0.180251,0.241091
422,-0.412129,-0.414569,-0.183722
423,0.55256,-0.194141,-0.324747
424,0.554809,-0.387598,0.395208
425,1.10632,2.113551,-0.524682
426,1.136994,3.191418,-1.69875
427,-0.863401,0.674213,1.403926
428,-0.530962,-0.144471,1.248812
429,-0.536261,-0.229273,1.536468
430,-0.329414,0.011616,0.205255
431,0.475368,0.773593,0.471619
432,0.243477,1.132245,-0.04381
433,1.696043,0.848176,-0.483538
434,1.875012,0.048154,-0.968308
435,0.907064,-0.348857,-0.808207
436,0.623909,-0.351066,-0.768225
437,0.200799,-0.359921,-0.58939
438,0.014229,-0.799924,-0.973274
439,-0.093219,-1.191805,-0.393927
440,-0.254329,-1.494812,-0.049194
441,-0.411779,-1.313683,-0.130125
442,-0.295748,-0.759757,-0.757514
443,0.040936,0.292659,-0.343783
444,0.101332,0.828306,0.113466
445,0.393148,1.156655,0.15431
446,1.098233,1.543486,-0.026571
447,1.813191,1.478049,0.365463
448,1.245516,0.922291,0.09917
449,0.521352,1.329262,-0.487237
450,0.428201,1.076337,-0.343775
451,0.357018,0.616386,-0.029228
452,0.233819,-0.101169,0.560249
453,-0.138468,-0.788738,1.1516
454,-1.017131,-0.917532,1.312258
455,-1.764239,-0.787219,0.931072
456,-1.786577,-0.725747,1.327751
457,-1.208679,-0.359971,0.919379
458,-0.848346,-0.066823,0.192717
459,-0.652689,-0.312803,-0.051991
460,0.310139,-0.619569,0.038775
461,1.097132,0.26797,0.046509
462,2.138123,3.533062,-0.627219
463,-0.400794,0.855592,0.91794
464,-0.823507,-0.103326,-0.131861
465,-0.580437,-0.378296,1.355771
466,-0.692263,-0.255036,0.744066
467,0.092896,0.845858,0.599827
468,0.294584,0.81957,-0.012534
469,1.714247,1.018804,-0.72623
470,1.856865,0.080398,-1.083916
471,1.386713,-0.422718,-0.967616
472,0.674572,-0.683386,-0.716645
473,0.164271,-0.454486,-0.572812
474,0.058715,-0.512831,-0.855328
475,-0.084311,-1.018283,-0.464157
476,-0.2752,-1.428092,-0.083448
477,-0.38922,-1.41904,-0.10873
478,-0.329351,-0.8162,-0.675881
479,0.225697,0.379666,-0.1452
480,0.167256,1.068034,0.013571
481,0.458094,1.298913,-0.034637
482,1.086317,1.701534,-0.431881
483,1.74518,1.644719,0.047574
484,1.449416,0.972631,0.211917
485,0.669199,1.140974,-0.420078
486,0.456061,0.744449,-0.135885
487,0.346893,0.111725,0.29085
488,0.021222,-0.515004,0.907914
489,-0.682124,-0.785826,1.358812
490,-1.510542,-0.741742,1.586658
491,-2.070583,-0.657907,1.524132
492,-1.534689,-0.565212,1.484021
493,-0.995328,-0.274954,0.572267
494,-0.598006,-0.155502,0.016841
495,-0.286199,-0.592405,-0.501191
496,0.8525,-0.352581,-0.330172
497,2.687165,3.051742,-1.223652
498,0.322632,1.673633,0.641988
499,-1.192201,0.271769,0.487442
500,-0.449732,-0.169002,1.918331
501,-0.864013,-0.365278,1.571957
502,-0.580015,0.138826,0.697353
503,0.127975,0.933011,0.636043
504,0.369147,1.09203,-0.180745
505,2.867336,0.871239,-1.483142
506,1.91538,-0.394284,-1.545359
507,1.290113,-0.845655,-0.813201
508,0.33358,-0.946865,-0.171549
509,-0.220762,-0.314896,-0.555269
510,-0.202206,-0.825784,-0.606064
511,-0.107144,-1.416048,-0.119879
512,-0.255171,-1.746513,-0.20471
513,-0.172599,-0.953733,-0.457575
514,0.251378,0.392149,-0.256749
515,0.216632,1.284908,-0.102902
516,0.215369,1.427698,-0.223482
517,0.413725,1.579005,-0.378371
518,1.142746,1.686579,-0.107027
519,1.625776,1.500091,0.631413
520,1.237925,0.717418,-0.185322
521,0.917515,0.501902,-0.598855
522,0.826231,0.059106,-0.226253
523,0.433638,-0.546145,0.8107
524,-0.269535,-0.808177,1.57483
525,-0.928841,-0.895028,1.921338
526,-2.168189,-0.580692,1.961864
527,-1.95427,-0.308214,1.418726
528,-1.218302,-0.112945,0.528948
529,-0.885912,-0.076036,-0.211266
530,-0.361433,-0.406891,-0.942378
531,0.815151,-0.467563,-0.256632
532,1.752822,1.43001,-0.600519
533,1.195925,2.748623,0.188403
534,-0.294368,1.101024,1.231488
535,-0.47314,0.185094,0.827939
536,-0.688945,-0.47751,0.995497
537,-0.541796,-0.283163,0.566274
538,0.225207,0.710514,0.694172
539,0.392438,1.350868,-0.076747
540,2.190955,0.872674,-0.690876
541,1.895553,0.009145,-1.447397
542,1.067446,-0.608651,-0.84734
543,0.377055,-0.66155,-1.018111
544,0.00977,-0.685762,-0.114488
545,-0.150274,-0.893679,-1.11481
546,-0.115646,-1.160254,-0.513088
547,-0.270156,-1.337816,0.039746
548,-0.540897,-1.398458,0.029906
549,-0.227139,-0.828343,-0.531145
550,0.325612,0.413621,-0.158545
551,0.253518,1.068824,0.059237
552,0.667844,1.393621,-0.065154
553,1.170119,1.969591,-0.210212
554,1.528078,1.718136,0.304184
555,0.790685,1.283758,-0.24123
556,0.562177,0.913024,-0.32031
557,0.377969,0.388765,0.072793
558,0.209884,-0.235323,0.563479
559,-0.42245,-0.787873,0.744173
560,-0.935358,-0.828209,1.166995
561,-1.710525,-1.021266,1.325351
562,-1.768723,-0.789494,1.614743
563,-1.352459,-0.440809,1.065812
564,-0.992367,-0.122225,0.542914
565,-0.424271,-0.278599,-0.172593
566,0.656068,-0.446877,-0.415021
567,1.041904,-0.168197,0.322484
568,1.825346,2.94063,-0.814023
569,0.120568,1.568905,0.829709
570,-0.846291,0.284219,0.269888
571,-0.566144,-0.022695,1.959768
572,-1.032811,-0.565245,1.023508
573,-0.494982,0.253376,0.470132
574,0.017712,1.097998,0.448642
575,0.770737,1.389586,-0.121768
576,2.092893,1.05022,-0.770098
577,1.422986,-0.533008,-1.232975
578,0.969131,-0.92596,-0.496864
579,0.30878,-0.690371,-0.283195
580,-0.150861,-0.547436,-1.097882
581,-0.225393,-1.125197,-0.124598
582,-0.321437,-1.436862,0.046378
583,-0.396203,-1.692121,0.05792
584,-0.387238,-0.651708,-1.09807
585,-0.346498,-0.1334,-0.946149
586,0.348194,0.878231,0.21904
587,0.322472,1.275446,0.174745
588,0.621209,1.448786,0.171263
589,1.69719,1.903785,-0.144888
590,1.571686,0.971074,0.413391
591,1.166299,0.751665,0.09957
592,0.469026,1.179563,-0.32094
593,0.25805,0.828828,-0.098844
594,0.204924,0.081895,0.419761
595,-0.082333,-0.484077,0.725558
596,-0.868389,-0.810003,1.117541
597,-1.947563,-0.820078,1.240847
598,-1.923717,-0.73123,1.285629
599,-1.381553,-0.69368,1.164149
600,-0.767317,-0.266373,0.307445
601,-0.154778,-0.53437,-0.554697
602,0.90784,-0.194575,-0.036856
603,0.760676,0.412866,0.850644
604,1.488407,3.96371,-2.373878
605,-0.248462,1.276818,1.570489
606,-0.454344,0.501453,0.534603
607,-0.551498,-0.39002,1.849609
608,-0.609625,-0.524742,0.817524
609,-0.362071,-0.141039,0.398429
610,0.080913,1.21451,0.415214
611,1.078272,1.283991,0.040987
612,2.09072,0.416588,-0.580873
613,1.241263,-0.672232,-1.335361
614,0.728052,-0.85278,-0.604902
615,0.176284,-0.678862,-0.216636
616,-0.040178,-0.622096,-0.921314
617,-0.192894,-1.064511,-0.702492
618,-0.289236,-1.31188,-0.1344
619,-0.474637,-1.270146,0.014235
620,-0.391282,-0.86105,-0.414615
621,-0.144521,-0.040518,-0.365415
622,0.21653,0.910719,0.056009
623,0.260424,1.208865,0.068321
624,0.854791,1.521204,-0.014328
625,1.658338,1.420459,-0.406532
626,1.486219,0.908694,0.261171
627,0.928557,1.035135,-0.054953
628,0.503226,0.933223,-0.191528
629,0.318506,0.495187,0.169221
630,0.19576,-0.017391,0.510176
631,-0.285091,-0.553468,0.984942
632,-0.919032,-0.746147,1.22169
633,-1.714867,-0.801722,1.046741
634,-1.737909,-0.712351,1.290896
635,-1.342857,-0.36038,0.986521
636,-0.716292,0.038691,0.22712
637,-0.507128,-0.350066,-0.060415
638,0.382536,-0.687645,0.109761
639,1.052459,0.167906,0.612997
640,2.505696,4.167264,-1.466168
641,-0.434585,1.187889,1.140357
642,-0.674394,0.187074,0.432372
643,-0.648852,-0.332007,1.69527
644,-0.944705,-0.514709,0.812203
645,-0.297959,0.233102,0.619204
646,0.230954,0.734362,0.473442
647,2.765847,0.608635,-1.439519
648,1.963781,-0.017204,-1.096369
649,0.94745,-0.620431,-0.774956
650,0.550047,-0.671647,-0.386549
651,0.23857,-0.479669,-1.066211
652,0.049436,-0.758808,-1.049363
653,-0.18958,-1.088866,-0.131735
654,-0.306546,-1.222784,0.088992
655,-0.536788,-1.300908,-0.040253
656,-0.290431,-0.588591,-0.400467
657,0.159259,0.49318,-0.070754
658,0.202811,1.059743,-0.094426
659,0.715863,1.41382,-0.24796
660,0.844707,1.550228,-0.29623
661,1.689914,1.260773,0.526372
662,1.326744,0.92129,0.314027
663,0.663411,0.879644,-0.201137
664,0.565642,0.635482,-0.123309
665,0.469294,0.204791,0.061094
666,0.102496,-0.290877,0.761955
667,-0.670704,-0.696622,1.183349
668,-1.410655,-0.734255,1.398127
669,-1.891189,-0.888609,1.651624
670,-1.668315,-0.5406,1.285172
671,-0.997586,-0.070173,0.484259
672,-0.777531,-0.058578,-0.293095
673,-0.306748,-0.638234,-0.903193
674,1.01562,-0.205934,-0.150841
675,2.35521,3.021065,-0.320669
676,0.091726,1.57326,0.900808
677,-0.679805,0.132973,1.243179
678,-0.378234,-0.280662,1.951537
679,-0.731935,-0.219037,1.10434
680,-0.366321,0.348084,0.396206
681,0.424632,1.059962,0.181465
682,0.656795,0.829759,-0.327231
683,1.969787,0.215227,-0.683862
684,1.560784,-0.569932,-0.537496
685,0.918733,-0.742743,-0.661314
686,0.469178,-0.558342,-0.977136
687,0.086963,-0.551007,-0.895791
688,-0.075335,-0.772648,-0.818334
689,-0.220399,-1.131642,-0.334724
690,-0.430154,-1.249945,0.070281
691,-0.383556,-1.070446,-0.241418
692,-0.372532,-0.646698,-0.847053
693,0.173309,0.339237,-0.001041
694,0.349396,1.044221,0.54865
695,0.517349,1.080964,0.224242
696,1.317275,1.122602,-0.006006
697,1.679851,0.936288,-0.072188
698,1.428729,0.842306,-0.12754
699,0.784857,1.286289,-0.284343
700,0.489894,0.937984,-0.094721
701,0.251747,0.288543,0.296824
702,-0.213493,-0.480598,0.759671
703,-0.92518,-0.590809,0.97168
704,-1.674557,-0.668683,0.966412
705,-1.807501,-0.785536,1.173279
706,-1.341034,-0.682577,1.265912
707,-0.73596,-0.305855,0.444713
708,-0.560722,-0.232205,0.218209
709,0.160493,-0.701701,-0.036332
710,0.893168,-0.266078,0.222435
711,1.642413,0.920443,0.113713
712,0.266216,1.719453,0.22048
713,-0.753166,0.368946,-0.02886
714,-0.442982,0.005107,2.48427
715,-1.103703,-0.230227,1.514735
716,-0.851144,0.286837,0.4029
717,0.189297,1.131837,0.578984
718,0.593742,1.014567,0.123325
719,2.344249,0.381364,-0.635817
720,2.153337,-0.549847,-1.050513
721,1.237352,-0.789553,-1.041757
722,0.855586,-0.805471,-0.533301
723,0.249595,-0.534105,-0.536169
724,-0.125398,-0.693741,-1.333185
725,-0.212837,-0.996487,-0.283697
726,-0.322551,-1.184801,-0.123963
727,-0.629597,-1.19561,-0.081955
728,-0.539363,-0.34054,-1.176671
729,-0.414362,-0.043554,-0.653652
730,0.495902,0.809385,0.523721
731,0.284822,1.050627,0.548688
732,1.06743,1.231893,0.064372
733,2.747654,1.310936,-0.025138
734,1.90036,0.742003,-0.092113
735,1.009651,1.026436,-0.294663
736,0.379841,1.123037,-0.281319
737,0.208548,0.550006,0.132879
738,0.28323,-0.082703,0.699497
739,-0.246487,-0.61244,1.030351
740,-1.367054,-0.782431,1.29942
741,-2.180211,-0.706039,1.540571
742,-2.233002,-0.462233,1.457328
743,-1.250947,-0.434231,1.208812
744,-0.595026,-0.073202,-0.021368
745,-0.305765,-0.674163,-0.311125
746,1.115947,-0.434173,0.147954
747,0.594211,0.295613,0.726488
748,2.320956,4.484643,-3.24743
749,-0.42637,1.212063,1.739871
750,-0.685721,1.030882,1.513731
751,-0.881994,-0.451858,1.724129
752,-0.908266,-0.465087,0.509839
753,-0.686119,-0.21527,-0.071907
754,0.672302,1.58831,0.600261
755,1.266432,1.279933,0.144974
756,2.404299,0.252049,-0.581204
757,1.566236,-0.951743,-1.293719
758,0.395126,-1.01243,-0.636558
759,0.241551,-0.772082,-0.406045
760,-0.129347,-0.557055,-1.208365
761,-0.222499,-0.885437,-0.400431
762,-0.360562,-1.129636,0.219676
763,-0.667919,-1.352261,0.048682
764,-0.490134,-0.939862,-0.532495
765,-0.453202,-0.322613,-0.80931
766,0.272364,0.688699,0.045352
767,0.244541,1.001789,0.498489
768,0.798533,1.261401,0.258872
769,2.090012,1.403605,0.016451
770,1.673475,0.698908,-0.261224
771,0.984415,0.955297,-0.288441
772,0.323213,1.200653,-0.198822
773,0.19193,0.718751,0.109759
774,0.056892,0.16681,0.447521
775,-0.193175,-0.27952,0.564282
776,-0.639948,-0.581649,0.796383
777,-1.451938,-0.762053,0.957206
778,-1.577946,-0.773941,1.105452
779,-1.388048,-0.669202,1.100531
780,-0.816413,-0.297821,0.426326
781,-0.499455,-0.397274,-0.084546
782,0.275365,-0.415039,-0.113321
783,1.558195,1.593268,-0.353899
784,1.583521,3.061287,-0.801461
785,-0.562971,0.477879,0.963044
786,-0.574647,-0.095062,0.007512
787,-0.475803,-0.329665,2.010233
788,-0.63504,-0.008763,0.884741
789,0.004405,0.714824,0.344722
790,0.528661,0.821435,0.103325
791,1.163165,0.391124,0.241219
792,1.837649,-0.08528,-1.182746
793,0.817641,-0.181712,-0.853545
794,0.656373,-0.400806,-0.615523
795,0.445171,-0.489381,-0.633199
796,0.0091,-0.876116,-1.198556
797,-0.154104,-1.066169,-0.571477
798,-0.250613,-1.177093,-0.129365
799,-0.553831,-1.414955,0.027491
800,-0.435947,-0.887087,-0.676267
801,-0.39889,-0.51433,-1.226513
802,0.364552,1.023619,0.194256
803,0.262205,1.369352,0.262777
804,0.457172,1.357739,0.186316
805,2.096915,1.311213,-0.29522
806,1.877526,0.869811,0.300515
807,1.494857,0.902636,0.122987
808,0.44464,1.115539,-0.305585
809,0.278908,0.583784,0.025812
810,0.252208,0.112995,0.452112
811,-0.193965,-0.512603,0.818658
812,-1.156388,-0.796681,1.095774
813,-1.726245,-0.712333,1.119598
814,-1.977069,-0.643037,1.330931
815,-1.150637,-0.379284,0.999657
816,-0.897936,-0.067922,0.430256
817,-0.586553,-0.208376,-0.037478
818,0.728714,-0.326843,0.181761
819,0.746359,-0.297166,0.375736
820,1.695841,2.438789,-0.505263
821,0.783094,1.795784,0.198401
822,-0.670847,0.418218,0.83399
823,-0.369023,-0.001885,1.241067
824,-0.808005,-0.376276,1.541003
825,-0.534124,0.248138,0.725044
826,-0.038928,1.134157,0.502533
827,1.045368,0.737791,-0.232194
828,2.458729,0.159573,-1.39356
829,1.555764,-0.393862,-1.203168
830,0.939847,-0.797199,-0.670788
831,0.367352,-0.697554,-0.608023
832,0.020722,-0.479878,-0.471027
833,-0.009453,-0.604614,-1.16977
834,-0.172587,-1.024718,-0.357062
835,-0.398008,-1.407333,0.029124
836,-0.531474,-1.396708,-0.141612
837,-0.319033,-1.020273,-0.40382
838,0.241382,0.858706,-0.034024
839,0.361932,1.353814,-0.047145
840,0.650715,1.515272,-0.015393
841,1.611701,1.7818,-0.30114
842,1.559345,1.315096,0.226473
843,1.245497,0.811661,0.257506
844,0.490155,0.979545,-0.422997
845,0.331126,0.487691,-0.041811
846,0.239184,0.155237,0.234699
847,-0.244958,-0.473459,0.823662
848,-0.987888,-0.731583,1.050912
849,-1.627222,-0.688651,0.967617
850,-1.884967,-0.567401,1.127266
851,-1.371272,-0.564482,1.109384
852,-0.706971,-0.139165,0.431174
853,-0.492161,-0.464979,0.039529
854,0.358661,-0.437749,-0.094525
855,1.327811,0.56672,0.064639
856,2.348797,3.575404,-0.975152
857,-0.469745,0.71617,0.977586
858,-0.725271,0.11048,0.190817
859,-0.575019,-0.207069,2.084576
860,-0.887607,-0.214384,1.205068
861,-0.385081,0.656903,0.719548
862,0.214315,1.183223,0.551924
863,0.774369,0.975699,-0.312967
864,3.137774,0.221578,-1.441828
865,1.606686,-1.081364,-1.112522
866,0.475101,-0.791152,-0.637336
867,-0.07127,-0.202107,-0.837541
868,-0.107129,-0.059072,-0.448913
869,-0.036472,-0.539092,-1.162951
870,-0.144436,-1.088583,-0.327243
871,-0.310154,-1.487844,0.13208
872,-0.483506,-1.463076,-0.054824
873,-0.431342,-0.866026,-0.75463
874,-0.000758,0.172773,-0.231244
875,0.310094,0.983414,0.234178
876,0.499615,1.274212,0.059186
877,1.36164,1.563203,-0.191554
878,1.83963,1.375599,-0.113114
879,1.392028,0.772984,0.16239
880,0.825861,1.175992,-0.241953
881,0.36984,0.812438,-0.099019
882,0.203784,0.204211,0.354133
883,-0.096411,-0.405953,0.827986
884,-0.851819,-0.476077,0.930628
885,-1.354825,-0.530192,1.060078
886,-2.018509,-0.569869,1.474564
887,-1.499075,-0.54555,1.426362
888,-1.198649,-0.367102,0.935765
889,-0.602238,-0.237299,-0.007418
890,0.180716,-0.642893,-0.269564
891,0.75564,-0.373735,0.091444
892,0.924906,1.032745,0.070804
893,1.752825,3.587558,-2.000086
894,-0.388325,1.115491,1.88681
895,-0.389076,-0.16226,0.853108
896,-0.62895,-0.718863,1.576388
897,-0.575405,-0.401705,0.408273
898,0.128839,0.521972,0.56771
899,0.967065,1.086356,0.380354
900,1.653703,-0.072538,-0.368691
901,1.4442,-0.090907,-1.262622
902,0.574188,-0.156266,-1.156776
903,0.056452,-0.450543,-0.509462
904,-0.102511,-0.163124,-0.373671
905,0.109676,-0.522454,-1.163276
906,0.008517,-1.021049,-0.519519
907,-0.200975,-1.406973,0.010737
908,-0.469955,-1.340489,-0.086392
909,-0.332436,-0.759538,-0.580786
910,0.099659,0.208641,-0.124573
911,0.255764,0.91411,0.092477
912,0.624337,1.231558,-0.071062
913,0.983861,1.362192,-0.175945
914,1.822283,1.290072,0.066193
915,1.61398,1.220046,0.171402
916,0.457001,1.269228,-0.283604
917,0.358711,0.617834,0.048923
918,0.193905,0.256883,0.125298
919,0.034845,-0.268109,0.50247
920,-0.45659,-0.474406,0.724091
921,-1.150455,-0.546144,0.919527
922,-1.652081,-0.71147,1.003828
923,-1.753596,-0.634309,1.277519
924,-1.246782,-0.371922,0.826655
925,-0.822933,-0.080663,0.238894
926,-0.48334,-0.329998,-0.271029
927,0.521635,-0.317415,-0.04754
928,1.849533,2.56243,-0.146965
929,1.436142,2.217225,-0.167665
930,-0.324487,0.601818,1.123854
931,-0.239599,0.191326,1.115519
932,-0.583263,0.115507,0.936786
933,-0.621035,0.14984,0.38154
934,0.047918,0.976848,0.471497
935,0.176108,0.596329,0.230844
936,0.972622,0.354398,-0.165638
937,1.686667,-0.342672,-1.21648
938,0.90754,-0.508828,-1.122242
939,0.729247,-0.590165,-1.110982
940,0.133892,-0.716924,-0.262352
941,-0.120934,-0.688124,-0.976222
942,-0.28743,-0.892148,-0.242082
943,-0.506248,-1.312167,-0.026826
944,-0.473643,-1.262819,-0.236432
945,-0.408951,-0.733678,-0.726478
946,0.135124,0.250323,-0.110339
947,0.391978,1.008479,0.279122
948,0.733024,1.374442,0.109479
949,1.189245,1.487169,-0.16749
950,1.488042,1.117983,-0.076079
951,1.350044,0.874791,0.112392
952,0.598538,1.19514,-0.1507
953,0.377028,0.837389,-0.032308
954,0.144395,0.261513,0.169431
955,0.079996,-0.185339,0.583717
956,-0.308059,-0.463637,0.706426
957,-0.540965,-0.481367,0.835471
958,-1.566908,-0.706211,1.10014
959,-1.500667,-0.623851,1.413507
960,-1.245914,-0.492562,1.052699
961,-0.733938,-0.084411,0.280678
962,-0.593306,-0.30815,-0.241011
963,0.281281,-0.465676,-0.446166
964,2.226879,1.584436,-0.938168
965,1.583657,2.265673,0.031492
966,-0.690263,0.471261,0.842664
967,-0.729603,0.059259,0.291186
968,-0.601639,0.118003,1.924867
969,-0.717567,0.302153,0.580538
970,-0.055764,1.087244,0.467397
971,0.429745,0.794412,0.039818
972,0.877646,0.257399,-0.216874
973,1.854256,-0.422433,-0.952739
974,1.06128,-0.605837,-0.870246
975,0.853866,-0.680477,-0.975886
976,0.123384,-0.48283,-0.440388
977,-0.067442,-0.515721,-0.933045
978,-0.115697,-0.720618,-0.827484
979,-0.480552,-1.288921,-0.109108
980,-0.590069,-1.487772,-0.167505
981,-0.471815,-1.130234,-0.486447
982,0.268206,0.386784,-0.052509
983,0.39739,1.104034,0.249851
984,0.511588,1.297254,0.251771
985,1.118534,1.416903,-0.294235
986,1.449332,1.10217,0.160358
987,1.459851,0.897632,0.339938
988,0.701736,1.139758,-0.395284
989,0.378047,0.752608,-0.206477
990,0.304387,0.307818,0.078845
991,0.173243,-0.211751,0.679422
992,-0.355138,-0.644588,0.978833
993,-0.710437,-0.73985,1.136409
994,-1.847639,-0.62302,1.155953
995,-1.893297,-0.499187,1.198559
996,-1.238852,-0.260793,0.837159
997,-0.749416,-0.03397,0.084982
998,-0.519942,-0.564071,-0.369713
999,0.425663,-0.585847,0.211276
1000,1.413322,0.831096,-0.007232
1001,2.072927,3.258969,-0.532452
1002,-0.606972,0.883309,0.82633
1003,-0.267313,0.378921,0.741718
1004,-0.742821,-0.179131,1.79502
1005,-0.885605,-0.096756,0.810962
1006,-0.075827,0.975926,0.726524
1007,0.471282,1.119203,0.249325
1008,0.927093,0.958137,0.095481
1009,2.097852,-0.249785,-1.5619
1010,1.25613,-0.708458,-1.102102
1011,0.490456,-0.800225,-0.598473
1012,-0.10818,-0.503249,-0.56614
1013,-0.217761,-0.595259,-1.070999
1014,-0.297394,-1.109461,-0.214044
1015,-0.413574,-1.609548,0.108143
1016,-0.566179,-1.430879,-0.056432
1017,-0.384125,-0.739958,-0.776706
1018,0.069322,0.515642,-0.246885
1019,0.368898,1.056085,0.393474
1020,0.403675,1.222001,0.282754
1021,2.06098,1.461043,0.136825
1022,2.629209,1.233746,0.395512
1023,1.902382,0.651218,-0.154657
1024,0.625094,1.291366,-0.618546
1025,0.410047,0.810605,0.005144
1026,0.277821,0.470098,0.21006
1027,0.052525,-0.507446,0.974851
1028,-0.730429,-0.687101,1.103606
1029,-1.234793,-0.666116,1.240644
1030,-2.386674,-0.347679,1.439205
1031,-1.617622,-0.383179,1.597482
1032,-1.046716,-0.182922,0.761531
1033,-0.609606,-0.084529,0.095792
1034,0.005071,-0.456569,-0.55719
1035,0.923267,-0.50272,0.269917
1036,1.70079,1.483414,-0.591317
1037,1.686463,2.492681,-0.088087
1038,-0.663274,0.584274,1.204612
1039,-0.583271,0.042764,0.74324
1040,-0.773704,-0.152739,1.624537
1041,-0.857171,-0.165788,0.977764
1042,0.208232,1.054719,0.684947
1043,0.30185,1.112711,0.082619
1044,0.800238,0.793909,-0.211843
1045,1.894799,-0.270343,-1.240697
1046,1.224087,-0.652909,-0.756145
1047,0.939463,-0.633406,-0.770461
1048,-0.059297,-0.51412,-0.25299
1049,-0.318076,-0.925664,-0.96527
1050,-0.288871,-1.073094,-0.457424
1051,-0.347765,-1.340746,0.056878
1052,-0.580153,-1.390173,-0.049709
1053,-0.329829,-0.802832,-0.463892
1054,0.327565,0.410774,-0.157108
1055,0.360148,0.99295,-0.08503
1056,0.540415,0.926786,-0.363807
1057,0.840082,0.995108,-0.319643
1058,2.094818,0.901295,0.382017
1059,2.119442,1.34174,0.629529
1060,0.803369,1.194245,-0.154575
1061,0.730492,0.771254,-0.211377
1062,0.573407,0.524039,-0.154869
1063,-0.080128,-0.318916,0.789517
1064,-0.777269,-0.721938,1.360278
1065,-1.347645,-0.91952,1.514341
1066,-2.103946,-0.63642,1.862428
1067,-1.592877,-0.209325,1.470557
1068,-1.466622,-0.039614,0.85912
1069,-0.824557,0.054683,-0.22473
1070,-0.146285,-0.211208,-1.026552
1071,0.550599,-0.306829,-0.560788
1072,0.468552,-0.553872,0.681341
1073,1.232917,2.428145,-0.543053
1074,1.368959,2.436539,-0.713426
1075,-0.354684,0.623956,1.100109
1076,-0.227008,0.146616,1.186783
1077,-0.5144,-0.029258,0.675426
1078,-0.162817,0.582123,0.531581
1079,0.095866,1.027566,0.285751
1080,1.12563,0.573206,0.044324
1081,2.455894,0.051133,-1.408733
1082,1.287118,-0.267938,-1.295699
1083,0.680367,-0.597483,-0.697521
1084,0.072632,-0.485997,-0.314532
1085,-0.187536,-0.447295,-1.156902
1086,-0.153284,-0.85575,-0.239347
1087,-0.345446,-1.390216,-0.050246
1088,-0.484575,-1.58011,-0.202964
1089,-0.397034,-0.948885,-0.421624
1090,-0.35243,-0.392565,-0.757299
1091,0.254395,0.728283,-0.055036
1092,0.3666,1.15522,0.222783
1093,0.893451,1.452072,0.129154
1094,1.715742,1.428737,-0.107632
1095,1.818403,0.90977,0.47582
1096,1.14794,0.769103,-0.168396
1097,0.554733,0.817153,-0.447718
1098,0.51651,0.638329,-0.086601
1099,0.206897,0.057568,0.429557
1100,-0.409473,-0.470543,0.950068
1101,-0.714764,-0.491529,1.015742
1102,-1.606263,-0.618655,1.110738
1103,-1.942351,-0.489591,1.372694
1104,-1.618732,-0.331061,1.124786
1105,-1.097901,-0.153883,0.437869
1106,-0.496545,-0.296685,-0.225862
1107,0.014035,-0.325547,-0.628668
1108,0.806589,-0.492796,0.224633
1109,1.354363,2.618807,-0.51998
1110,1.66686,3.128492,-1.211495
1111,-0.429399,0.812232,1.313327
1112,-0.421048,0.103065,1.089504
1113,-0.440204,-0.08561,1.553606
1114,-0.395457,0.238359,0.537821
1115,0.133252,1.023475,0.482416
1116,0.256996,1.199616,0.25661
1117,2.640031,-0.10427,-1.072328
1118,1.502724,-0.544333,-1.368312
1119,0.816313,-0.716151,-1.105728
1120,0.252747,-0.727894,-0.620977
1121,-0.053647,-0.492354,-0.423261
1122,-0.206315,-0.595488,-0.646769
1123,-0.344085,-1.06265,-0.120832
1124,-0.416887,-1.510564,-0.015588
1125,-0.440841,-1.369827,-0.220526
1126,-0.461386,-0.769394,-0.724826
1127,-0.604457,-0.122379,-1.019487
1128,-0.067844,0.550874,0.028384
1129,0.186125,0.748156,0.795293
1130,0.63274,1.218188,0.435933
1131,2.289297,1.248611,0.535998
1132,2.280849,0.718958,-0.59041
1133,1.407478,0.795094,-0.528407
1134,0.522086,1.271552,-0.600264
1135,0.313036,0.96532,0.058917
1136,0.223079,0.379433,0.434725
1137,0.070148,-0.162736,0.754791
1138,-0.623579,-0.508075,0.895717
1139,-1.574074,-0.478802,0.885332
1140,-2.042039,-0.493102,0.917027
1141,-1.781381,-0.532469,1.224271
1142,-0.939503,-0.240937,0.620971
1143,-0.557512,-0.167317,0.240787
1144,-0.096871,-0.563771,-0.303157
1145,0.715481,-0.453229,0.375913
1146,1.027385,0.757472,0.307504
1147,1.40383,3.066732,-1.325449
1148,-0.405196,0.94865,1.172533
1149,-0.403191,0.41118,0.203322
1150,-0.641777,0.019932,2.015119
1151,-0.233612,0.335456,0.542087
1152,0.30765,0.731385,0.618
1153,0.79991,0.961345,0.59416
1154,1.825244,-0.043785,-0.570947
1155,2.223439,0.082185,-1.667157
1156,0.726062,-0.40311,-0.963474
1157,0.422424,-0.430622,-0.890898
1158,0.201579,-0.474647,-0.572569
1159,-0.098667,-0.678111,-1.032265
1160,-0.133619,-1.076808,-0.424852
1161,-0.282238,-1.357269,-0.104169
1162,-0.532926,-1.585505,-0.024364
1163,-0.426403,-0.869691,-0.675734
1164,-0.483157,-0.627207,-0.814181
1165,0.275226,0.747948,-0.051346
1166,0.26734,1.275406,0.185572
1167,1.039885,1.435447,-0.088643
1168,2.100609,1.087148,0.051891
1169,1.897726,0.473655,-0.185366
1170,1.680488,0.506648,-0.353604
1171,0.865934,0.828787,-0.486735
1172,0.652226,0.326159,0.255027
1173,0.392832,-0.040729,0.744412
1174,-0.18426,-0.3152,0.988085
1175,-1.018652,-0.280815,1.215253
1176,-1.865278,-0.508538,1.414041
1177,-2.484527,-0.578461,1.657842
1178,-1.432538,-0.26332,1.173348
1179,-0.739218,0.026583,0.407257
1180,-0.455968,-0.232663,-0.274852
1181,0.53995,-0.762415,-0.137753
1182,1.495381,0.291856,-0.166461
1183,2.880784,3.971462,-0.893355
1184,-0.376488,1.024908,0.989847
1185,-0.786564,0.661055,0.973633
1186,-0.520371,-0.103636,2.121238
1187,-1.016396,-0.027199,0.900652
1188,-0.225994,0.90806,0.582813
1189,0.46134,1.210906,0.400124
1190,0.776083,0.695511,-0.572798
1191,2.042771,0.247601,-1.041893
1192,1.421025,-0.692893,-1.21961
1193,0.572611,-0.855757,-0.508863
1194,0.23929,-0.682134,-0.260822
1195,-0.167455,-0.527898,-1.278497
1196,-0.237361,-0.693109,-0.711701
1197,-0.389171,-1.147022,0.110061
1198,-0.595453,-1.513007,0.227928
1199,-0.567852,-1.179057,-0.240902
1200,-0.437544,-0.65032,-0.821758
1201,-0.312609,0.29518,-0.39279
1202,0.417863,0.939267,0.507883
1203,0.350833,0.95357,0.872329
1204,2.156573,1.330474,-0.193911
1205,2.497579,0.871609,-0.289713
1206,2.030912,0.649636,-0.320438
1207,0.621794,1.341034,-0.408213
1208,0.196037,1.176347,-0.150613
1209,0.100526,0.741914,0.315377
1210,-0.140952,-0.21231,0.734201
1211,-0.630738,-0.622077,0.780717
1212,-1.0249,-0.531853,0.791774
1213,-1.946173,-0.131325,0.764581
1214,-2.006659,-0.072173,0.993066
1215,-1.475377,-0.157914,1.002892
1216,-0.708053,-0.137297,0.184019
1217,0.034218,-0.620919,-0.035963
1218,0.763049,-0.638072,0.650987
1219,0.203833,-0.472547,0.629058
1220,1.278005,2.849465,-2.446043
1221,1.02732,1.755595,1.246179
1222,-0.373329,1.058319,1.467538
1223,-0.588288,-0.254518,1.217824
1224,-0.808035,-0.424984,1.076998
1225,-0.467318,-0.031898,-0.110565
1226,0.314512,0.971798,0.488391
1227,0.701383,1.243461,0.068423
1228,2.327554,0.135206,-1.590321
1229,1.504319,-0.35557,-1.232238
1230,0.855018,-0.659981,-0.762026
1231,0.397871,-0.687728,-0.503972
1232,0.120198,-0.570722,-0.916041
1233,-0.064132,-0.795864,-1.029941
1234,-0.230604,-1.07346,-0.215017
1235,-0.512146,-1.346036,-0.018533
1236,-0.625309,-1.181972,-0.190102
1237,-0.485984,-0.705855,-0.705284
1238,-0.036849,0.166486,-0.520123
1239,0.320363,0.915206,-0.19925
1240,0.422105,1.22367,-0.072394
1241,1.060479,1.529117,-0.109199
1242,1.87105,1.115848,-0.041279
1243,1.544441,0.795015,-0.067489
1244,0.835723,0.847843,-0.414596
1245,0.576448,0.686176,-0.249456
1246,0.116958,0.136879,0.141175
1247,-0.083486,-0.143527,0.474268
1248,-0.297478,-0.204052,0.714538
1249,-1.356867,-0.648597,1.290238
1250,-2.008181,-0.845372,1.463049
1251,-2.046407,-0.657123,1.252211
1252,-1.100104,-0.10042,0.452009
1253,-0.761516,-0.058694,-0.092222
1254,-0.595209,-0.232521,-0.284416
1255,0.782335,-0.479339,-0.126381
1256,0.512461,-0.147497,0.64069
1257,0.525315,0.662761,0.535367
1258,0.563131,1.302773,1.161279
1259,-0.419419,0.977009,1.202689
1260,-0.350625,0.087807,1.141853
1261,-0.532458,-0.166206,0.618563
1262,-0.267474,0.282006,-0.317789
1263,0.468886,0.987102,0.184263
1264,0.904625,1.132014,0.218933
1265,2.667665,-0.559885,-1.031908
1266,1.474167,-0.854886,-1.366793
1267,0.63012,-0.929795,-1.097676
1268,0.116437,-0.439666,-0.656886
1269,-0.194399,-0.302942,-1.053227
1270,-0.227356,-0.470274,-0.890959
1271,-0.325879,-0.899432,-0.125143
1272,-0.542356,-1.264471,0.03268
1273,-0.55416,-1.355469,-0.117559
1274,-0.390457,-0.862239,-0.637256
1275,-0.248651,-0.119873,-0.615644
1276,0.316035,0.732604,0.223016
1277,0.44461,1.117076,0.270651
1278,1.291218,1.499431,0.041611
1279,2.065341,1.373894,-0.23193
1280,1.187233,0.728397,-0.450783
1281,0.871717,0.8644,-0.210413
1282,0.657413,0.771548,-0.15189
1283,0.339111,0.510284,-0.030303
1284,0.087652,0.059277,0.452263
1285,-0.260816,-0.120821,0.667332
1286,-0.866907,-0.322067,0.877038
1287,-1.455871,-0.58338,0.995123
1288,-1.922192,-0.647497,1.383258
1289,-1.593256,-0.323235,0.925999
1290,-0.976618,-0.195253,0.299025
1291,-0.708875,-0.168183,-0.035864
1292,-0.084651,-0.294505,-0.734826
1293,0.882513,-0.445299,-0.364048
1294,0.655987,-0.250352,0.333711
1295,1.494928,2.932838,-0.882848
1296,0.231039,1.275594,1.140096
1297,-0.499415,0.745685,0.791067
1298,-0.374131,0.072832,1.200504
1299,-0.757243,-0.146032,0.444499
1300,0.156999,0.627982,0.106983
1301,0.470036,1.10039,0.451479
1302,0.25974,1.092046,0.094011
1303,2.151326,-0.439243,-0.175609
1304,2.163455,-1.058114,-1.164567
1305,0.692119,-0.806328,-1.300331
1306,0.368531,-0.431767,-0.950266
1307,0.033636,-0.275657,-0.298577
1308,-0.116485,-0.295762,-0.42329
1309,-0.321662,-0.867936,-0.533789
1310,-0.396319,-1.272063,-0.303411
1311,-0.476385,-1.363964,-0.286681
1312,-0.505617,-0.758681,-0.701151
1313,-0.55755,-0.373823,-0.676692
1314,-0.044624,0.226793,0.037058
1315,0.420791,0.479918,0.881279
1316,0.435657,0.66388,0.694397
1317,1.273169,1.176297,0.139328
1318,1.875528,0.950657,-0.370473
1319,1.181926,0.620669,-0.522002
1320,0.734931,0.895931,-0.281679
1321,0.275504,0.843552,-0.216043
1322,-0.020242,0.537759,-0.138707
1323,-0.039113,0.188596,0.245706
1324,-0.347581,-0.119671,0.64927
1325,-1.275896,-0.480628,0.598418
1326,-1.516102,-0.62035,0.658818
1327,-1.626224,-0.405744,0.88218
1328,-1.211426,-0.148239,0.370182
1329,-0.817879,-0.211315,-0.250617
1330,-0.183338,-0.486222,-0.31825
1331,0.291633,-0.568668,0.196548
1332,0.630095,0.384947,0.072292
1333,1.464057,2.75,-0.610316
1334,-0.232504,1.032103,1.166834
1335,-0.307488,0.027924,-0.199474
1336,-0.463116,-0.160609,1.211752
1337,-0.388717,0.282647,0.68943
1338,0.001127,0.982979,0.068657
1339,0.71015,0.771255,0.033063
1340,0.512463,0.394264,0.277358
1341,0.650508,0.327439,0.102795
1342,1.951289,-0.134013,-1.064277
1343,1.170454,-0.578319,-1.469667
1344,0.701198,-0.581244,-1.043408
1345,0.422443,-0.473855,-0.653858
1346,-0.23647,-0.398119,-0.921137
1347,-0.3111,-0.574777,-0.816366
1348,-0.550961,-1.091379,-0.38145
1349,-0.632486,-1.420112,-0.275143
1350,-0.526942,-1.222131,-0.285195
1351,-0.557922,-0.516197,-0.499284
1352,-0.468814,-0.000737,-0.454364
1353,-0.170801,0.367161,-0.097118
1354,0.394747,1.05136,0.451265
1355,0.909044,1.081899,0.066624
1356,1.335675,1.062301,-0.033641
1357,1.439501,0.386264,-0.464745
1358,0.927999,0.596411,-0.337931
1359,0.773674,0.974166,-0.290869
1360,0.279819,0.712027,-0.312753
1361,0.106347,0.014327,0.224897
1362,-0.23598,-0.516745,0.534238
1363,-0.959463,-0.754485,0.540013
1364,-1.494142,-0.647167,0.57089
1365,-1.832592,-0.501388,0.769024
1366,-1.558718,-0.166769,0.365747
1367,-0.769768,0.080556,0.103606
1368,-0.504536,-0.140978,-0.397125
1369,0.595563,-0.184061,-0.240101
1370,0.487132,-0.649137,0.319494
1371,0.351944,0.060484,0.289961
1372,1.615301,3.126462,-2.912116
1373,-0.286604,0.940116,1.43366
1374,-0.296709,0.958557,1.428598
1375,-0.655134,-0.075389,1.543639
1376,-0.94859,0.236249,-0.387283
1377,-0.171148,0.904026,-0.133488
1378,0.518388,1.158705,0.620275
1379,0.409048,0.678104,0.069858
1380,1.016337,0.22512,0.082939
1381,2.149214,-0.942368,-1.168301
1382,0.876547,-0.935042,-0.964316
1383,0.307326,-0.470157,-0.673432
1384,-0.127687,-0.204875,-0.649865
1385,-0.219288,-0.035024,-0.784878
1386,-0.116451,-0.186085,-0.65361
1387,-0.065769,-0.639958,-0.41179
1388,-0.260041,-1.214143,-0.333577
1389,-0.257738,-1.316781,-0.375887
1390,-0.288235,-1.041439,-0.604564
1391,-0.047481,-0.13004,-0.130784
1392,0.572466,0.608973,0.537851
1393,1.039816,1.109717,0.109034
1394,1.423946,1.64551,-0.419902
1395,1.145955,1.586566,-0.530869
1396,0.237961,0.978162,0.033112
1397,0.006904,0.991475,-0.210374
1398,-0.06597,0.778916,-0.392787
1399,-0.052706,0.308064,-0.182121
1400,-0.09724,0.228737,0.013556
1401,-0.136519,0.210136,0.181173
1402,-0.399642,0.00352,0.522498
1403,-0.684763,-0.109389,0.497878
1404,-0.926145,-0.153539,0.503028
1405,-1.207875,-0.26598,0.476175
1406,-1.287055,-0.464602,0.417077
1407,-1.315246,-0.49238,0.207221
1408,-0.631918,-0.704897,-1.058902
1409,0.282224,-0.829222,-1.308162
1410,0.814411,-0.236511,-0.629846
1411,0.318606,0.618132,-0.415953
1412,-0.297899,0.745741,0.021912
1413,-0.387752,1.222928,0.313744
1414,2.173685,4.566741,-0.648834
1415,0.851723,1.15273,1.558931
1416,0.196477,-0.206248,2.531204
1417,-0.877861,-0.57423,0.698483
1418,-0.419188,-0.266574,1.242476
1419,-0.224103,0.554107,0.559839
1420,-0.006938,0.989474,-0.23552
1421,0.581591,0.769529,0.164469
1422,0.478045,0.320174,-0.032229
1423,0.63864,-0.458022,0.212939
1424,0.21109,-0.825119,-0.019559
1425,0.057448,-0.687496,-0.199679
1426,-0.115466,-0.199497,-0.214873
1427,-0.111075,-0.077727,-0.23577
1428,-0.113728,-0.100703,-0.297213
1429,-0.097203,-0.244994,-0.302309
1430,-0.004113,-0.480759,-0.309382
1431,0.071541,-0.473575,-0.372113
1432,0.217122,-0.391099,-0.458545
1433,0.184291,-0.506087,-0.371782
1434,0.117142,-0.544792,-0.378409
1435,0.027793,-0.45569,-0.398136
1436,0.030439,-0.167519,-0.492876
1437,0.071243,0.037142,-0.359774
1438,0.250237,0.337669,-0.085699
1439,0.366149,0.526256,-0.052408
1440,0.406287,0.729429,-0.02761
1441,0.284477,0.922189,-0.219861
1442,0.200498,1.154336,-0.187429
1443,0.137237,1.308417,-0.133539
1444,-0.107894,1.267985,-0.11633
1445,-0.067993,0.510624,0.152596
1446,-0.016516,0.18959,0.259448
1447,0.175106,-0.193723,0.365104
1448,0.231852,-0.284039,0.404864
1449,0.146538,-0.368959,0.285158
1450,-0.04071,-0.317819,0.09441
1451,-0.203968,-0.260782,0.006649
1452,-0.268359,-0.23509,-0.00911
1453,-0.449704,-0.423892,0.080644
1454,-0.583158,-0.444155,0.04558
1455,-0.634289,-0.497692,-0.004162
1456,-0.5656,-0.545419,-0.047776
1457,-0.529955,-0.392523,-0.246643
1458,-0.377883,-0.122506,-0.322947
1459,-0.233775,0.074427,-0.246908
1460,-0.049479,0.59987,-0.375652
1461,-0.013588,0.587874,-0.342485
1462,0.059888,0.496538,-0.435453
1463,0.159306,0.31155,-0.656043
1464,0.164048,0.306602,-0.655003
1465,0.131413,-0.208744,-0.541354
1466,-0.206181,-0.404813,0.499869
1467,-0.478696,-0.265461,0.792711
1468,-0.824996,-0.034548,0.788992
1469,-1.170763,0.503711,-0.580057
1470,-0.96906,0.671249,-0.944556
1471,0.373717,0.213181,0.960371
1472,0.491859,0.289892,0.753956
1473,0.497784,0.241211,-0.02195
1474,0.88794,0.320806,-0.00692
1475,0.028979,-0.272088,0.411904
1476,-0.129012,-0.258844,0.187217
1477,-0.089537,-0.348649,0.20248
1478,0.229628,0.026513,0.414185
1479,0.066723,0.222987,0.332198
1480,0.244689,0.410494,0.23982
1481,1.373409,0.340753,-0.120059
1482,2.107105,0.07754,-0.439483
1483,1.383489,-0.757754,-0.745501
1484,0.78571,-0.660545,-0.769496
1485,0.591224,-0.586295,-0.961427
1486,0.053693,-0.00346,-0.929812
1487,-0.291487,0.09368,-0.912971
1488,-0.306081,-0.228793,-0.921087
1489,-0.376984,-0.882949,-0.327422
1490,-0.536069,-1.213053,-0.144507
1491,-0.514238,-1.189478,-0.14745
1492,-0.430029,-0.299942,-1.012717
1493,0.215104,0.810839,-0.409334
1494,0.189289,1.499395,-0.057041
1495,0.216259,1.474224,0.201279
1496,0.985033,1.541065,-0.02076
1497,1.606861,1.301302,-0.047958
1498,1.643293,0.259578,-0.347609
1499,1.219781,0.534566,-0.792665
1500,0.865529,0.369123,-0.190368
1501,0.48933,-0.144823,0.387192
1502,0.151772,-0.329739,0.885598
1503,-0.590752,-0.45237,1.381966
1504,-1.510902,-0.19589,1.279538
1505,-2.015832,-0.037071,1.134317
1506,-1.608836,-0.128388,1.142508
1507,-1.151318,-0.274517,0.771054
1508,-0.645812,-0.343648,0.08824
1509,-0.421702,-0.569178,0.034468
1510,0.075773,-1.162932,0.707043
1511,0.328229,-0.736341,0.777
1512,-0.186297,0.038774,0.545014
1513,1.819471,4.570218,-3.677388
1514,0.227482,1.090236,1.976194
1515,-0.067329,0.380267,0.785649
1516,-0.367392,-0.13438,1.002398
1517,-0.235176,-0.001806,0.877303
1518,0.500476,0.744465,0.829592
1519,0.912694,1.010036,0.532075
1520,2.431657,-0.017219,-0.858147
1521,1.574198,-0.566518,-1.600243
1522,0.661089,-0.592491,-0.676682
1523,0.075824,-0.441819,-0.502055
1524,-0.102046,-0.277049,-0.520801
1525,-0.037481,-0.450953,-0.74829
1526,-0.05698,-0.885367,-0.41029
1527,-0.454971,-1.134353,0.040045
1528,-0.452364,-1.264757,-0.217168
1529,-0.484873,-0.896187,-0.394894
1530,-0.590339,-0.590762,-0.412306
1531,-0.086296,0.348096,-0.018454
1532,0.249596,0.901317,0.302574
1533,0.251604,1.01724,0.325449
1534,1.164228,1.34535,0.068202
1535,2.028114,1.085856,0.295661
1536,1.719095,0.708221,0.190378
1537,0.863986,1.134824,-0.211619
1538,0.259146,0.853475,-0.398116
1539,0.219277,0.319483,0.245511
1540,0.0164,-0.317551,0.630673
1541,-0.434641,-0.684888,0.836043
1542,-0.691414,-0.624201,0.650586
1543,-1.354673,-0.447678,0.690782
1544,-1.622277,-0.561277,0.968586
1545,-1.153269,-0.516371,0.805175
1546,-0.640395,-0.171628,0.417931
1547,-0.29931,-0.20717,-0.137259
1548,0.718753,-0.006644,-0.342084
1549,0.652736,-0.517706,-0.741895
1550,1.238085,1.211543,-0.205542
1551,1.125281,2.103296,-0.393811
1552,-0.237047,0.464342,1.577706
1553,-0.541034,0.104514,1.17943
1554,-0.370976,0.080471,1.780801
1555,-1.0534,0.525984,-0.323595
1556,-0.374149,1.033414,-0.662194
1557,0.328321,1.165661,0.493784
1558,0.392454,0.971853,0.734597
1559,0.37433,0.696767,0.831781
1560,1.533541,0.008069,0.658213
1561,2.120691,-1.000272,-1.393664
1562,1.154024,-0.747333,-1.689742
1563,1.038317,-0.74693,-1.278319
1564,0.56341,-0.825364,-0.197651
1565,-0.055279,-0.774163,-0.54388
1566,-0.308192,-0.934456,-0.63743
