,userAcceleration.x,userAcceleration.y,userAcceleration.z
0,0.014,-0.141883,-0.032978
1,-0.006192,-0.142882,-0.057586
2,0.001737,-0.142447,-0.078973
3,0.00278,-0.093321,-0.106102
4,-0.01053,-0.046636,-0.144755
5,-0.015026,0.001939,-0.188132
6,-0.025981,0.031636,-0.212986
7,-0.046537,0.012524,-0.229889
8,-0.074289,0.099949,-0.128993
9,-0.043545,0.1633,-0.131514
10,-0.121029,-0.022769,0.015116
11,-0.153488,0.01348,0.013083
12,-0.128185,0.035682,-0.012523
13,-0.005054,-0.045107,0.169583
14,0.145939,-0.051823,0.246265
15,0.194427,-0.006365,0.259315
16,0.152946,0.197815,0.185821
17,0.085321,0.156483,0.142499
18,0.048149,-0.003844,0.103658
19,-0.019074,-0.133939,0.091601
20,-0.018863,-0.117442,0.080678
21,0.007233,-0.074336,0.073677
22,0.111545,-0.013135,0.036
23,0.115211,-0.029182,0.042755
24,0.057004,-0.06643,0.046522
25,-0.002124,-0.088135,0.051244
26,0.030387,-0.128889,-0.002844
27,0.036963,-0.146475,-0.033536
28,0.167965,-0.10657,-0.001525
29,0.1831,-0.120513,0.002142
30,0.106922,-0.151561,-0.013895
31,0.076591,-0.098205,-0.009863
32,0.051213,-0.010696,0.011574
33,0.056377,0.052135,0.006664
34,0.044074,0.040221,-0.044404
35,0.061601,0.040433,-0.053481
36,0.111993,0.054884,-0.072011
37,0.171706,0.061813,-0.11502
38,0.197985,0.138002,-0.118995
39,0.233892,0.336557,-0.107017
40,0.237872,0.446512,-0.112836
41,0.332195,0.3414,-0.211774
42,0.339675,0.341189,-0.215719
43,0.387487,-0.007042,-0.091125
44,0.217723,-0.194166,-0.064872
45,0.067625,-0.301889,-0.04724
46,-0.0584,-0.31454,-0.061574
47,-0.083959,-0.229025,-0.104472
48,-0.065832,-0.136152,-0.058483
49,0.010193,-0.040177,-0.07177
50,0.081951,0.061041,-0.051321
51,0.058609,0.125927,-0.019944
52,-0.015649,0.289525,-0.006794
53,-0.090643,0.607416,-0.096605
54,-0.144793,0.60386,-0.172268
55,-0.148382,0.887228,-0.208569
56,-0.161041,0.877297,-0.309644
57,-0.277856,0.77016,-0.328595
58,-0.315425,0.415314,-0.265184
59,-0.274123,0.230788,-0.21842
60,-0.084249,-0.063317,-0.148917
61,0.170702,-0.363113,-0.132586
62,0.264054,-0.483027,-0.144417
63,0.311072,-0.803598,-0.014911
64,0.042251,-1.295625,0.094049
65,-0.165692,-1.280108,0.070117
66,-0.301322,-1.219667,0.058914
67,-0.188555,-0.946565,0.165796
68,-0.041029,-0.53967,0.141444
69,-0.010361,-0.567457,0.413779
70,-0.207683,-0.131677,0.660571
71,-0.336299,0.587453,0.29551
72,-0.366883,0.831395,-0.293014
73,0.001388,0.020929,-0.119891
74,0.346699,0.108344,0.087337
75,0.644192,0.409173,-0.003285
76,0.376672,1.22462,-0.039634
77,0.217753,1.03617,-0.274743
78,0.311027,0.727773,-0.347041
79,0.169906,1.00964,-0.322266
80,0.329105,0.595854,-0.40674
81,0.357717,0.250417,-0.382571
82,0.160054,-0.406587,-0.312212
83,-0.168523,-0.743953,-0.283888
84,-0.192755,-0.784952,-0.068311
85,-0.09199,-0.787074,0.052731
86,-0.047409,-0.914822,-0.066878
87,-0.057714,-1.044385,0.034973
88,-0.184301,-1.172741,0.142971
89,-0.177702,-1.015254,0.121854
90,-0.28616,-0.419174,0.227144
91,-0.135657,0.66626,0.288528
92,0.037215,0.774292,0.3492
93,0.143353,1.120375,-0.173066
94,0.107371,0.967504,-0.186274
95,0.24283,0.761503,-0.302795
96,0.248261,1.066808,-0.343025
97,0.167633,1.46872,-0.332276
98,-0.249204,1.009837,-0.389118
99,-0.274137,0.401468,-0.305037
100,-0.08091,-0.303488,-0.050775
101,-0.02752,-0.536772,-0.065407
102,0.088718,-1.004221,0.030349
103,0.064632,-1.446992,0.086845
104,0.003296,-1.460026,0.043824
105,-0.298293,-1.209565,0.131061
106,-0.324587,-0.889672,0.397209
107,-0.357475,-0.628028,0.344928
108,-0.308354,-0.367506,0.003091
109,-0.169931,-0.416059,0.648765
110,-0.212454,-0.185717,0.809078
111,-0.253537,0.602033,0.439739
112,-0.004964,0.526756,-0.428817
113,-0.154166,0.03572,-0.174695
114,0.045064,0.371642,0.036425
115,0.250102,0.755701,0.125545
116,0.204318,1.184106,-0.272304
117,0.354902,1.117337,-0.464085
118,0.711932,0.526404,-0.387147
119,0.38915,0.305861,-0.133225
120,0.415185,0.325702,-0.235569
121,0.339366,0.35774,-0.160341
122,-0.046634,-0.169096,-0.344118
123,-0.398285,-0.602377,-0.232722
124,-0.270797,-0.70533,-0.001942
125,-0.109531,-0.925493,0.229333
126,-0.040182,-0.997313,0.216585
127,0.038454,-1.085337,0.29789
128,-0.084491,-1.142426,0.099445
129,-0.238693,-0.920975,0.12491
130,-0.317547,-0.224006,0.334543
131,-0.141524,0.732524,0.347453
132,0.095014,0.854788,0.054452
133,0.19888,0.684059,-0.271103
134,0.195554,1.616401,-0.49209
135,0.231618,0.677545,-0.511405
136,0.643373,0.937019,-0.569343
137,0.67712,1.264101,-0.464429
138,0.127513,0.935978,-0.340555
139,-0.229698,0.288222,-0.285606
140,-0.392881,-0.28878,-0.182874
141,-0.203308,-0.623068,-0.057314
142,0.012532,-0.96137,0.144277
143,0.070225,-1.163482,0.338874
144,-0.267577,-1.395381,0.378439
145,-0.405322,-1.048681,0.524078
146,-0.399215,-0.834404,0.497168
147,-0.380072,-0.450693,-0.021479
148,-0.25525,-0.676534,0.216903
149,-0.300661,-0.535451,0.668763
150,0.199317,0.588956,0.466012
151,0.313848,1.590798,-0.198968
152,-0.165853,0.3835,-0.295946
153,-0.152113,0.140865,0.301672
154,0.34148,0.732783,0.076091
155,0.339066,0.722589,0.036285
156,0.43588,1.515077,-0.335554
157,0.846107,1.102927,-0.514686
158,0.658208,0.744544,-0.501126
159,0.592184,0.634381,-0.472415
160,0.234941,-0.051003,-0.086886
161,0.012446,-0.536585,-0.151158
162,-0.362776,-0.361572,-0.008218
163,-0.123178,-0.841233,0.078651
164,-0.096154,-0.843274,0.08336
165,-0.00602,-1.048652,0.122655
166,0.008027,-1.266016,0.339901
167,-0.041181,-1.081003,-0.072799
168,-0.099051,-0.949717,-0.042571
169,-0.113936,-0.702017,-0.052162
170,-0.151372,-0.016894,0.290624
171,0.325592,1.338877,0.719365
172,0.550113,2.091784,0.132639
173,-0.281254,1.131804,-0.061952
174,-0.111547,1.311442,-0.680468
175,0.081273,0.845808,-0.627956
176,0.235591,1.08241,-0.27336
177,0.160159,1.002518,-0.125113
178,0.091614,0.452527,-0.011749
179,0.156342,-0.353074,-0.007889
180,0.233176,-0.922749,0.191462
181,-0.100669,-1.610717,0.227939
182,-0.403682,-1.787999,0.190367
183,-0.52918,-1.552593,0.429973
184,-0.398189,-1.023298,0.66981
185,-0.19404,-0.296039,0.272866
186,0.052304,0.474221,-0.468684
187,0.242616,-0.491588,-0.011633
188,0.273833,-1.625916,0.253321
189,-0.236912,-1.469377,0.861882
190,-0.730521,2.343632,0.186325
191,-0.5374,5.07147,-0.772869
192,0.563834,0.052946,0.153924
193,0.409163,0.331451,0.308286
194,0.349114,1.039104,0.021378
195,0.166266,1.645922,-0.255884
196,1.0807,0.931397,-0.321084
197,1.031475,0.579037,-0.280074
198,0.46623,0.424456,-0.298554
199,-0.032987,-0.107027,-0.165266
200,-0.225802,-0.347963,-0.146537
201,-0.46904,-0.572494,-0.146243
202,-0.194213,-0.735094,-0.069118
203,-0.06128,-0.916229,0.007947
204,0.07636,-1.096093,0.095411
205,0.066671,-1.091191,0.257726
206,-0.067008,-1.142812,0.17379
207,-0.278528,-0.847548,0.156997
208,-0.488361,-0.290836,0.190403
209,-0.494548,-0.287513,0.220959
210,0.174789,1.042563,0.634719
211,0.638266,1.613318,-0.080437
212,0.322659,1.480754,-0.13786
213,0.138725,1.604966,-0.442542
214,0.078767,1.170491,-0.637683
215,0.284517,1.257009,-0.472803
216,-0.025307,0.805552,-0.278068
217,-0.135251,-0.018546,-0.058912
218,-0.078578,-0.098747,0.001717
219,0.06632,-0.788,0.089912
220,0.075664,-1.253685,0.225132
221,-0.347567,-1.584547,0.244423
222,-0.38176,-1.423619,0.19062
223,-0.33182,-1.149748,0.384902
224,-0.141591,-0.684914,0.254778
225,-0.133997,-0.383231,0.138049
226,-0.194779,-0.363242,0.065792
227,-0.221446,-0.551308,0.414147
228,-0.4002,-0.25498,0.54896
229,-0.659145,1.101517,0.854724
230,0.260444,0.746632,-0.245288
231,0.182528,0.269947,-0.310093
232,0.638095,0.902135,0.017801
233,0.6099,0.872005,0.038546
234,0.142962,0.908706,-0.265089
235,0.495911,0.655232,-0.425849
236,0.831267,0.677994,-0.275806
237,0.340646,0.760541,-0.243759
238,0.024829,0.667249,-0.253594
239,-0.111962,0.0919,-0.323427
240,-0.424331,-0.662192,-0.316469
241,-0.359166,-0.862629,-0.151398
242,-0.259238,-0.981947,-0.050831
243,-0.170143,-1.081257,0.269992
244,0.20047,-0.832468,0.406659
245,-0.023351,-0.980881,0.359648
246,-0.281398,-1.115485,0.060346
247,-0.490498,-0.179355,0.105199
248,-0.261179,0.593999,0.155426
249,0.27369,1.149217,0.108669
250,0.170142,0.5701,-0.046003
251,0.098818,1.131455,-0.242896
252,-0.325326,0.93552,-0.523838
253,0.021797,1.196548,-0.497876
254,0.108551,1.172404,-0.448086
255,0.026786,0.848637,-0.316143
256,-0.084922,0.205759,-0.140536
257,-0.05417,-0.163137,-0.092926
258,0.161162,-1.044452,-0.021541
259,0.074661,-1.420437,0.076534
260,-0.017714,-1.571358,0.074701
261,-0.372575,-1.401477,0.46549
262,-0.396167,-0.996511,0.547757
263,-0.356309,-0.35967,0.267978
264,-0.311094,-0.1957,-0.015105
265,-0.296966,-0.220071,0.744415
266,-0.343636,0.89665,0.308974
267,-0.025029,1.032913,-0.219809
268,0.269061,0.526923,-0.131611
269,0.477425,0.7565,-0.067353
270,0.698752,0.808273,0.18924
271,0.127377,1.044365,-0.156545
272,0.251323,1.032184,-0.417612
273,0.628195,1.211375,-0.427391
274,0.290128,0.585364,-0.341802
275,-0.226275,-0.665419,-0.144999
276,-0.317145,-0.610335,0.149095
277,-0.407049,-0.328502,0.052945
278,-0.204576,-0.506366,-0.048921
279,0.044084,-0.710934,-0.077247
280,-0.067981,-1.143137,0.008484
281,-0.059715,-1.288149,0.219179
282,0.020546,-1.172534,0.212313
283,0.081294,-1.06062,-0.14952
284,0.113295,-0.754543,-0.0063
285,-0.071068,-0.359652,0.258586
286,0.043637,0.837068,0.529151
287,0.029533,1.725291,0.406423
288,-0.0779,1.172499,-0.052153
289,-0.014889,1.22042,-0.243842
290,0.135007,0.492926,-0.353431
291,0.297926,0.821221,-0.311589
292,0.105418,1.298487,-0.208392
293,-0.09268,1.197385,-0.373825
294,-0.134277,0.420519,-0.199288
295,0.115612,-0.281113,0.032331
296,0.307761,-0.734578,0.319218
297,0.303588,-1.343108,0.399821
298,-0.32868,-1.623353,0.169962
299,-0.447769,-1.459651,0.279275
300,-0.401648,-1.074985,0.485282
301,-0.253528,-0.440419,0.147982
302,-0.141784,-0.374681,0.074856
303,-0.06196,-0.453517,0.282327
304,-0.330362,0.21212,0.404772
305,-0.333954,1.380435,0.538553
306,0.026974,-0.143522,-0.257043
307,0.289491,0.035911,0.033291
308,0.469602,0.272585,0.194146
309,0.336471,1.161402,0.074266
310,0.292597,1.362082,-0.490581
311,0.582128,1.080004,-0.567025
312,0.636758,0.661506,-0.284614
313,0.09794,0.504516,-0.117035
314,-0.074281,0.386789,-0.135767
315,-0.248861,-0.260531,-0.043023
316,-0.322372,-0.798427,-0.012727
317,-0.214914,-0.81669,0.006215
318,0.008624,-0.863783,-0.175923
319,0.127754,-1.150204,-0.006219
320,0.053088,-1.326231,0.361167
321,0.056919,-1.325672,0.37895
322,0.074632,-0.761594,0.269172
323,0.008109,-0.541502,0.229306
324,0.04817,0.161139,0.275777
325,-0.139478,1.648407,0.141885
326,0.103264,1.398654,-0.041426
327,-0.106141,0.833191,-0.130813
328,0.175657,0.756917,-0.215337
329,0.524122,1.205065,-0.33072
330,0.432588,1.444676,-0.382616
331,0.011969,0.845743,-0.321877
332,-0.285021,0.248612,-0.337518
333,-0.277385,-0.068332,-0.249697
334,-0.067169,-0.378728,0.20874
335,0.18019,-0.98981,0.486218
336,0.132516,-1.650568,0.482127
337,-0.197257,-1.727287,0.346774
338,-0.390826,-1.052596,0.497353
339,-0.196154,-0.450239,0.208443
340,0.026694,-0.048285,-0.244781
341,0.003021,-0.300208,0.506807
342,-0.154872,0.407348,0.467271
343,-0.099827,0.086645,-0.251406
344,-0.237994,-0.193455,-0.118936
345,0.494984,0.757901,-0.175393
346,0.775674,0.932008,0.369817
347,0.586591,1.209579,0.468878
348,0.279139,1.201574,-0.043173
349,0.829661,1.32818,-0.35964
350,0.613575,0.978427,-0.50498
351,-0.077007,0.102511,-0.112019
352,-0.368821,-0.681673,0.009324
353,-0.351913,-0.589154,-0.076168
354,-0.186288,-0.553856,-0.108358
355,0.057274,-0.827247,-0.07531
356,0.075401,-1.000579,-0.060411
357,0.002755,-1.287903,0.030808
358,0.022394,-1.398816,0.120404
359,-0.011472,-1.309136,0.014524
360,-0.162356,-0.38008,0.119323
361,-0.121774,0.854169,0.372031
362,-0.006979,1.110402,0.596423
363,0.218499,0.673643,0.087217
364,-0.013255,1.050512,0.065143
365,-0.097351,1.188186,-0.192648
366,-0.155595,1.116181,-0.278111
367,0.038728,1.448105,-0.229331
368,0.074018,0.961082,-0.159662
369,0.167964,0.425338,-0.084394
370,0.086493,-0.180288,0.066119
371,0.110573,-0.4685,0.127248
372,-0.010017,-1.18377,0.053714
373,-0.128403,-1.585624,0.194273
374,-0.199202,-1.675148,0.251755
375,-0.314742,-1.357608,0.426875
376,-0.390579,-1.019786,0.615576
377,-0.185132,-0.164083,0.16612
378,-0.120525,-0.09385,-0.330128
379,-0.131421,-0.442394,0.280935
380,-0.223392,-0.361289,0.623122
381,-0.387236,1.090945,0.661943
382,0.290907,0.836919,-0.297038
383,0.041613,0.134441,-0.11517
384,0.39331,0.325421,0.170212
385,0.541028,0.871366,0.050126
386,0.410904,1.589428,-0.271611
387,0.713471,1.221556,-0.494339
388,0.687153,0.578391,-0.406178
389,0.348066,0.409068,-0.325884
390,-0.288585,-0.22752,-0.086813
391,-0.544631,-0.420931,0.062927
392,-0.451018,-0.708052,-0.024939
393,-0.224334,-0.890117,0.028353
394,0.092067,-1.035309,0.156958
395,0.147611,-1.112715,0.09911
396,-0.004117,-1.234701,0.204823
397,-0.139153,-1.015416,0.109896
398,-0.228172,-0.721504,0.014044
399,-0.381013,-0.130475,0.156317
400,-0.132511,0.797289,0.425438
401,0.133891,1.199213,0.391631
402,0.199307,1.436076,0.178348
403,-0.196633,1.430338,-0.086974
404,0.105158,0.897006,-0.378656
405,0.392426,1.042899,-0.495246
406,0.249497,1.162932,-0.443275
407,0.003204,0.867407,-0.324354
408,-0.156041,0.217711,-0.238979
409,-0.122968,-0.148252,-0.028946
410,0.098478,-0.580602,0.212282
411,0.06402,-1.445433,0.093832
412,0.087478,-1.640037,0.165461
413,-0.193159,-1.487687,0.154042
414,-0.242475,-1.306423,0.433695
415,-0.155187,-1.056653,0.77244
416,-0.308659,-0.093566,0.321054
417,-0.50396,0.083794,-0.123326
418,-0.417805,-0.149296,0.852074
419,-0.685378,0.249615,0.315352
420,-0.177332,1.977989,-0.519596
421,0.219636,0.033265,-0.061216
422,0.546677,0.216297,0.052076
423,0.519421,0.539738,0.241056
424,0.267679,1.299645,-0.002236
425,0.304276,1.238073,-0.496828
426,0.788237,1.030711,-0.390391
427,0.82925,0.564521,-0.205438
428,0.134313,0.330373,-0.152811
429,-0.261776,-0.199696,-0.099645
430,-0.507829,-0.516925,0.115994
431,-0.438061,-0.694957,0.097635
432,-0.195608,-0.918575,-0.077408
433,0.094013,-1.200888,0.006131
434,0.089784,-1.377912,0.322336
435,0.067585,-1.336972,0.354467
436,-0.017857,-0.798991,0.125352
437,0.035027,-0.489208,0.314252
438,-0.075772,-0.157219,0.371607
439,-0.372995,0.924532,0.301815
440,-0.522588,0.889457,0.091547
441,-0.270657,1.255455,-0.19511
442,0.180759,0.918559,-0.094849
443,0.387588,1.038972,-0.178982
444,0.639789,1.039122,-0.464173
445,0.074602,1.110315,-0.348637
446,-0.352017,0.616589,-0.39898
447,-0.440231,0.451375,-0.336911
448,-0.245448,-0.187934,0.012411
449,-0.161011,-0.667154,0.052756
450,0.148486,-1.14922,0.23544
451,0.083601,-1.283493,0.451227
452,-0.20991,-1.214608,0.377663
453,-0.40871,-0.969066,0.481886
454,-0.281376,-0.738571,0.131173
455,-0.096315,-0.347848,-0.0954
456,0.041073,-0.73887,0.252608
457,-0.130751,-0.601542,0.904929
458,-0.161714,0.668061,0.481702
459,-0.101066,1.886396,-0.177681
460,-0.062121,-0.169863,-0.201344
461,0.222547,0.171473,-0.005406
462,0.601033,0.644992,0.193725
463,0.59471,1.754426,-0.273263
464,0.552722,1.301037,-0.591176
465,0.99216,1.014628,-0.220727
466,0.368221,0.451586,-0.291258
467,-0.210967,-0.058379,-0.110797
468,-0.286684,-0.588852,-0.065909
469,-0.36237,-0.399909,-0.059886
470,-0.290791,-0.642959,0.024275
471,-0.058975,-0.770149,0.140512
472,0.028656,-1.0061,0.223852
473,0.043855,-1.196984,0.276028
474,-0.165526,-1.298181,0.117083
475,-0.116169,-1.087792,-0.010648
476,-0.148602,-0.708356,0.018436
477,-0.164338,-0.010345,0.259244
478,0.034008,1.122859,0.450002
479,0.255893,1.193327,0.379838
480,-0.042652,0.744504,-0.078649
481,0.034356,1.402328,-0.116339
482,0.17136,0.928407,-0.370385
483,0.409675,1.430399,-0.488481
484,0.253678,1.462627,-0.349214
485,-0.049763,0.698738,-0.128824
486,-0.299802,0.170871,-0.055707
487,-0.073417,-0.475501,0.135338
488,-0.055868,-0.906788,0.137059
489,0.130606,-1.689885,0.154555
490,-0.267472,-1.64772,0.243583
491,-0.343107,-1.446772,0.312584
492,-0.273342,-1.270452,0.711137
493,-0.202826,-0.087357,0.12315
494,-0.216065,-0.047538,-0.139131
495,-0.00284,-0.349317,0.013296
496,-0.287492,-0.607618,0.855539
497,-0.389731,-0.202435,0.583196
498,-0.079713,0.958437,-0.308785
499,0.166546,0.390208,0.078171
500,0.312413,0.461194,0.231246
501,0.539266,1.110282,0.151546
502,0.344078,1.531681,-0.401051
503,0.498547,1.464121,-0.596398
504,0.823582,0.837259,-0.323365
505,0.270896,0.347336,-0.257737
506,-0.012274,-0.15852,-0.175353
507,-0.207587,-0.21335,-0.125024
508,-0.352001,-0.745228,-0.012049
509,-0.240035,-0.727282,0.006851
510,-0.088654,-0.969429,0.176308
511,0.042885,-1.188843,0.182902
512,0.092781,-1.189224,0.242779
513,-0.215681,-1.310371,0.042804
514,-0.315838,-0.903124,0.207286
515,-0.239549,-0.50283,0.264611
516,-0.233575,0.793809,0.351537
517,-0.086549,1.022825,0.224923
518,0.32608,1.053025,-0.165098
519,0.14174,1.375599,-0.179305
520,0.132012,1.055646,-0.411365
521,0.342437,1.170059,-0.578619
522,0.361931,1.403618,-0.387569
523,-0.053149,1.02228,-0.280253
524,-0.240149,0.434237,-0.302389
525,-0.080722,-0.021385,0.054784
526,-0.003697,-0.967762,0.191013
527,0.110692,-1.152974,0.453974
528,-0.046932,-1.472527,0.672915
529,-0.40102,-1.364862,0.372875
530,-0.271229,-0.951637,0.311437
531,-0.161724,-0.608476,0.35861
532,-0.118539,-0.278148,0.084601
533,-0.183087,-0.859734,0.386734
534,-0.21782,-0.877507,0.962573
535,-0.262729,0.621473,0.443294
536,-0.312732,2.479758,-0.454914
537,-0.130381,0.299605,-0.323677
538,0.775208,0.217583,-0.030369
539,0.965163,0.417345,0.130738
540,0.82301,1.090483,-0.094213
541,0.578735,1.069745,-0.234337
542,0.729539,1.160906,-0.096356
543,0.502206,0.817539,-0.080446
544,-0.352189,0.000684,0.018283
545,-0.353606,-0.316755,-0.006071
546,-0.529152,-0.638335,-0.09072
547,-0.290869,-0.777765,0.027733
548,0.001034,-0.946552,0.110956
549,0.130836,-1.147154,0.136258
550,-0.052781,-1.170883,0.151554
551,-0.140023,-1.120916,0.078865
552,-0.154548,-0.82934,-0.010749
553,-0.220154,-0.577276,0.303177
554,-0.262812,0.17428,0.541951
555,0.163016,0.946251,0.622974
556,0.185274,1.219611,0.239642
557,0.078864,1.222999,-0.102263
558,-0.100489,1.051057,-0.313178
559,-0.072859,0.915339,-0.32139
560,0.122113,1.289694,-0.328256
561,0.067545,1.080899,-0.174972
562,-0.052348,0.562387,-0.206097
563,0.030898,0.007354,-0.109537
564,0.230403,-0.446422,-0.017785
565,0.227325,-1.102114,0.21887
566,0.050293,-1.473003,0.238959
567,-0.091738,-1.61106,0.275035
568,-0.494249,-1.503755,0.549133
569,-0.402594,-1.061299,0.617832
570,-0.216123,-0.1156,0.193317
571,-0.138419,-0.081568,-0.041878
572,-0.041044,-0.154665,0.62715
573,-0.222126,-0.023775,0.474885
574,-0.386897,0.926244,0.071593
575,-0.012746,-0.091641,-0.191437
576,0.414903,0.746023,-0.221312
577,0.786589,1.075571,0.268256
578,0.278406,1.252789,0.18473
579,0.173666,1.034161,-0.353441
580,0.676387,1.093545,-0.38101
581,0.673045,0.838563,-0.355233
582,0.151427,0.330162,-0.151859
583,-0.140761,-0.643999,-0.174862
584,-0.174261,-0.467454,-0.009989
585,-0.371657,-0.562609,-0.14142
586,-0.107087,-0.615902,0.135321
587,-0.022736,-0.792337,0.181896
588,0.177167,-1.386326,0.259822
589,0.231809,-1.169989,0.040899
590,-0.085582,-1.048901,-0.029841
591,-0.256938,-0.715013,0.281367
592,-0.354279,0.035208,0.309535
593,-0.095229,1.194364,0.581774
594,-0.101247,1.45158,0.476404
595,-0.130799,0.831208,-0.093694
596,0.019164,1.371902,-0.084393
597,0.194301,0.750652,-0.45866
598,0.522477,1.399771,-0.458236
599,0.506173,1.489372,-0.362296
600,0.153448,1.003399,-0.297581
601,-0.106727,0.088115,-0.010312
602,-0.063404,-0.441664,0.308139
603,-0.067212,-1.378652,0.138723
604,-0.207229,-1.671533,0.204177
605,-0.256859,-1.543658,0.456743
606,-0.298391,-1.400148,0.516841
607,-0.343514,-0.982385,0.559192
608,-0.329387,-0.328882,0.012169
609,-0.393841,-0.207427,-0.23112
610,-0.371244,-0.145797,0.819152
611,-0.380146,1.273297,0.688018
612,0.168535,2.316201,-0.490683
613,0.133942,-0.430207,0.141291
614,0.309409,0.107993,0.219081
615,0.401875,1.022505,0.242401
616,0.187775,1.750778,-0.173458
617,0.38348,1.252441,-0.51621
618,1.060874,1.005219,-0.355231
619,0.510248,0.60103,-0.427549
620,0.045354,0.176597,-0.218477
621,-0.004744,-0.213442,-0.032654
622,-0.258734,-0.44046,-0.036024
623,-0.329947,-0.809655,0.02124
624,-0.079927,-0.819716,0.00193
625,-0.018386,-0.968153,0.061824
626,-0.012255,-1.213387,0.146145
627,-0.101571,-1.220529,0.259608
628,0.043423,-0.799024,0.182817
629,0.050333,0.106382,0.276013
630,0.121664,0.990952,0.197975
631,-0.242522,0.886512,0.257856
632,-0.127257,0.447542,0.272798
633,-0.089685,0.883291,0.324618
634,0.081376,1.39791,-0.214526
635,0.136464,1.488265,-0.223365
636,-0.015339,1.501881,-0.232715
637,-0.205716,0.529539,-0.116022
638,-0.107336,0.240368,-0.080277
639,0.069979,-0.343844,0.129042
640,0.081482,-1.193233,0.075941
641,0.086146,-1.435724,0.103954
642,0.067199,-1.830196,0.225371
643,-0.332612,-1.63236,0.348583
644,-0.438447,-1.174527,0.671261
645,-0.364273,-0.131747,0.273214
646,-0.474967,0.194559,-0.123715
647,-0.057454,-0.40989,0.255395
648,-0.220097,-0.660302,0.840572
649,-0.200741,-0.27249,0.74574
650,0.141346,1.441706,-0.387433
651,0.189043,0.792,-0.654226
652,0.643787,0.6465,0.224327
653,0.622242,0.962727,0.221666
654,0.100006,1.506729,-0.142848
655,0.483873,1.118378,-0.351853
656,0.830158,0.733725,-0.321557
657,0.462257,0.534635,-0.23004
658,-0.090057,-0.283753,-0.055818
659,-0.465664,-0.265382,0.017094
660,-0.698903,-0.34084,-0.023591
661,-0.213295,-0.752801,0.073868
662,-0.040828,-1.199779,0.058908
663,0.278546,-1.259441,0.081258
664,-0.0579,-1.385231,0.130446
665,-0.23966,-0.97319,0.047658
666,-0.242893,-0.972225,0.065822
667,-0.2854,-0.387851,0.020308
668,-0.185578,0.272232,0.282775
669,0.055261,0.758286,0.628976
670,0.582293,1.824856,0.337708
671,-0.488691,1.311469,-0.202879
672,-0.64272,1.252948,-0.37642
673,-0.116441,1.022106,-0.462006
674,0.409846,1.175883,-0.28968
675,0.225094,0.633734,-0.137381
676,0.02911,0.095916,0.007841
677,-0.059186,-0.080738,-0.07969
678,0.073252,-0.803026,0.380102
679,0.036023,-1.707849,0.183224
680,-0.040021,-1.915075,0.215768
681,-0.355531,-1.692985,0.217489
682,-0.35873,-1.438696,0.772861
683,-0.249543,-0.515198,0.472105
684,-0.231713,0.291583,0.102882
685,0.014556,-0.211882,-0.079097
686,-0.033999,-0.483637,0.271316
687,-0.382425,0.112426,0.772472
688,-0.252225,2.815502,-0.628356
689,0.089957,-0.319656,0.177217
690,0.211425,-0.201158,0.123
691,0.563979,0.939518,-0.111511
692,0.683809,1.771433,-0.366113
693,0.652999,1.412034,-0.566003
694,1.443971,1.190271,-0.208514
695,0.760955,0.492727,-0.483283
696,-0.018435,-0.067805,-0.230482
697,-0.520371,-0.680227,0.116956
698,-0.666436,-0.396758,0.127453
699,-0.564187,-0.746668,0.080078
700,0.023352,-0.959876,0.172953
701,0.148718,-0.990321,0.169811
702,0.009645,-1.026837,0.079802
703,-0.150544,-1.308795,0.174367
704,-0.041063,-1.184503,0.098937
705,0.088374,-0.660073,0.238037
706,0.178086,0.831408,0.43757
707,0.027752,1.670182,0.571678
708,-0.509763,0.814287,0.182596
709,-0.466795,0.988621,0.152202
710,-0.124816,0.767921,-0.158615
711,0.257196,1.307354,-0.161043
712,0.447049,1.578252,-0.278114
713,0.146287,0.947687,-0.248013
714,0.01984,0.436552,-0.089013
715,0.033749,-0.211544,0.053771
716,0.024301,-0.686437,0.154594
717,0.039449,-1.077543,0.049006
718,-0.048185,-1.573987,0.07241
719,-0.19494,-1.835436,0.511948
720,-0.426359,-1.483593,0.766052
721,-0.398893,-0.091004,0.341676
722,-0.383556,-0.054794,0.067358
723,0.0417,-0.404414,0.141929
724,-0.516866,-0.938122,0.705053
725,-0.722482,-0.808163,0.74457
726,-0.913747,1.901098,0.280045
727,0.590894,0.355491,-0.073467
728,0.532916,0.297134,0.082611
729,0.736688,0.37053,0.265819
730,0.177201,1.389509,-0.032744
731,0.228716,1.659306,-0.533163
732,0.310134,1.556845,-0.718405
733,0.791232,0.526821,-0.329731
734,0.395858,0.230313,-0.189971
735,-0.356694,-0.221307,0.036164
736,-0.571337,-0.226243,-0.032547
737,-0.335023,-0.853367,0.089574
738,-0.038376,-1.140284,0.225803
739,-0.058984,-1.293543,0.181603
740,-0.339775,-1.299286,0.174536
741,-0.271657,-1.172514,0.178434
742,-0.038463,-0.987357,0.053052
743,-0.056319,-0.450676,0.086269
744,-0.030806,0.37746,0.143837
745,0.115484,0.78901,0.676247
746,0.25705,1.169414,0.435469
747,-0.148152,1.405725,-0.205124
748,-0.35369,1.504104,-0.13264
749,-0.139029,0.953413,-0.272878
750,0.058727,1.004333,-0.159908
751,0.023811,0.99543,-0.077581
752,-0.008615,0.615277,-0.17648
753,0.030842,0.070203,-0.099301
754,0.074845,-0.265937,0.030638
755,0.237823,-0.904557,0.192899
756,0.20505,-1.781206,0.258356
757,-0.168215,-2.0727,0.147658
758,-0.444587,-1.541781,0.437365
759,-0.463583,-0.982846,0.591406
760,-0.333389,0.204858,-0.046969
761,0.001779,-0.085621,-0.058608
762,0.049933,-0.65365,0.285388
763,-0.338858,-0.648339,1.173537
764,-0.784317,0.840709,0.993564
765,-0.201022,2.084759,-0.370578
766,0.182458,0.344153,-0.019797
767,0.592059,0.690696,0.154794
768,0.692028,1.165658,-0.081092
769,0.645816,1.395355,-0.508511
770,0.821055,1.092589,-0.450009
771,1.202522,0.795587,-0.401998
772,-0.098289,-0.116501,0.000906
773,-0.417849,-0.396858,0.04181
774,-0.569586,-0.216447,-0.104331
775,-0.488338,-0.751558,-0.132131
776,-0.204665,-0.826063,-0.03408
777,0.159801,-1.209316,0.148971
778,0.157343,-1.441562,0.178746
779,-0.016717,-1.351718,0.22883
780,-0.099158,-1.109687,0.053097
781,-0.131155,-0.53633,0.253406
782,-0.100538,0.622578,0.425952
783,0.088371,1.058138,0.420449
784,0.127086,0.948477,0.288738
785,-0.110767,0.949635,0.233381
786,-0.471949,1.70858,-0.076222
787,0.049504,1.324868,-0.272799
788,0.356173,1.323743,-0.336966
789,0.301834,0.863819,-0.239779
790,0.217358,0.482478,-0.034316
791,0.050092,-0.047189,-0.093153
792,-0.044241,-0.613431,0.085215
793,-0.009225,-1.176773,0.178891
794,-0.240885,-1.568163,0.262253
795,-0.557633,-1.609674,0.174721
796,-0.540695,-1.384323,0.72836
797,-0.276472,-1.04701,0.829323
798,-0.25096,-0.141025,0.2861
799,-0.124661,-0.100766,-0.116464
800,0.029009,-0.668023,-0.026141
801,-0.336935,-0.541169,0.931907
802,-0.73781,1.794392,0.147831
803,0.360009,0.959684,0.011776
804,0.239985,-0.389605,-0.021597
805,0.503929,0.386727,0.144439
806,0.490819,1.301406,0.062831
807,0.218229,1.49722,-0.101497
808,0.395883,1.043841,-0.40043
809,0.890301,0.928796,-0.324188
810,-0.161898,0.314534,-0.254745
811,-0.29287,-0.447569,0.095549
812,-0.14261,-0.315145,-0.008432
813,-0.094457,-0.555188,-0.047369
814,0.009123,-0.893435,0.052615
815,0.03118,-0.928186,0.032392
816,-0.100638,-1.10207,0.310447
817,-0.17348,-0.999514,0.401634
818,-0.097869,-0.908196,0.347956
819,0.031205,-0.684544,0.097621
820,-0.084639,-0.542293,0.086941
821,-0.144579,0.268398,0.53422
822,0.174999,1.271708,0.385087
823,0.202551,1.583196,0.071956
824,-0.127543,1.305583,-0.041682
825,-0.125341,1.515251,-0.168922
826,0.26839,1.038275,-0.324885
827,0.303191,1.247271,-0.29755
828,0.150422,1.295079,-0.16984
829,-0.111369,0.213247,-0.164797
830,-0.071939,-0.342055,-0.052821
831,0.122904,-0.637298,0.184361
832,0.104668,-1.569961,0.32858
833,-0.006099,-1.956729,0.389188
834,-0.459276,-1.463748,0.345762
835,-0.590417,-1.113831,0.604494
836,-0.53614,-0.501213,0.23292
837,-0.329879,-0.130812,-0.058663
838,0.116284,-0.482413,0.185524
839,-0.057523,-0.711517,0.719336
840,-0.429947,-0.196807,0.894067
841,-0.171853,3.940233,-0.791755
842,0.29961,0.029316,-0.06314
843,0.502861,0.31298,0.268154
844,0.648943,0.428961,0.276038
845,0.473424,1.419209,0.19499
846,0.291451,1.289012,-0.458346
847,1.017692,1.243667,-0.268649
848,0.55977,0.424369,-0.324092
849,-0.257957,-0.244147,-0.052788
850,-0.543443,-0.780795,0.103059
851,-0.427513,-0.359605,0.17222
852,-0.159411,-0.805325,0.135771
853,0.049756,-1.019429,0.036573
854,0.059636,-1.104317,0.007556
855,-0.028364,-1.192288,0.172659
856,-0.194478,-1.215208,0.241775
857,-0.030209,-1.052623,-0.04112
858,0.043369,-0.693137,0.227148
859,0.13152,0.127492,0.719658
860,0.621654,1.93916,0.724152
861,-0.581317,2.054578,0.014305
862,-0.799466,0.509324,-0.005526
863,-0.166734,0.676842,-0.190001
864,0.561275,0.993873,-0.10208
865,0.577647,1.32734,-0.099639
866,0.108342,1.308392,-0.183816
867,-0.209126,0.766195,-0.246134
868,-0.261942,-0.103937,-0.047506
869,-0.123104,-0.37351,0.106198
870,0.109094,-0.74149,0.307801
871,0.051082,-1.437027,0.45402
872,-0.032437,-1.605049,0.46196
873,-0.415822,-1.54964,0.383759
874,-0.438415,-1.026594,0.466302
875,-0.21387,-0.452381,0.17826
876,-0.06262,-0.421218,0.113093
877,-0.211733,-0.28043,0.452812
878,-0.32804,-0.176937,0.58361
879,-0.686017,1.016027,0.528482
880,0.412036,0.123217,-0.214484
881,0.429809,0.607968,0.199661
882,0.649803,0.778237,0.399526
883,0.182637,0.953945,0.161561
884,0.127305,0.978736,-0.212113
885,0.809389,1.02442,-0.285659
886,0.675391,0.871097,-0.206884
887,0.058135,0.323962,-0.069019
888,-0.189105,-0.281706,0.041272
889,-0.284455,-0.438787,0.114515
890,-0.41897,-0.718151,-0.003615
891,-0.323041,-0.806879,0.125912
892,-0.173543,-0.977975,-0.00557
893,-0.127951,-1.111433,0.104093
894,-0.094772,-1.157851,0.420344
895,-0.231343,-1.152396,0.382099
896,-0.148564,-0.935077,0.280622
897,-0.141738,-0.614616,0.232861
898,-0.175025,0.059953,0.378785
899,0.256097,1.850373,0.970143
900,-0.100715,2.58358,0.417687
901,-0.747573,0.924463,0.206216
902,-0.387124,0.187282,0.038914
903,-0.040918,0.128775,0.179893
904,0.187806,0.242976,0.101144
905,0.122327,0.62583,0.094801
906,-0.081991,0.902004,-0.05786
907,-0.310882,0.441578,-0.008743
908,-0.384056,0.132152,0.052242
909,-0.225992,-0.25041,0.086638
910,0.006489,-0.617798,0.003077
911,0.025012,-0.722279,-0.036478
912,-0.165073,-0.730575,0.051273
913,-0.327687,-0.932241,0.360684
914,-0.266649,-1.080723,0.455739
915,-0.301652,-0.989128,0.509749
916,-0.507068,0.117606,0.676348
917,-0.518123,0.260433,0.772258
918,-0.617774,3.367298,-0.737778
919,-0.100753,0.000711,0.310128
920,0.195688,0.063275,0.448429
921,0.334542,0.700983,0.447702
922,0.049091,1.135445,0.379142
923,-0.190431,1.265141,0.233047
924,-0.112334,0.575647,0.146213
925,-0.241901,0.259892,0.354609
926,-0.465861,0.135486,0.414096
927,-0.423691,0.072152,0.321657
928,-0.155454,0.177275,0.240471
929,0.026648,-0.082808,0.038642
930,-0.034604,-0.40197,-0.046782
931,-0.143717,-0.662963,0.001007
932,-0.332821,-0.889429,0.103748
933,-0.31553,-0.835469,0.148043
934,-0.208707,-0.688397,0.248477
935,-0.182843,-0.534113,0.208413
936,-0.212354,-0.375142,0.237475
937,-0.251049,-0.194699,0.2407
938,-0.591929,1.20494,-0.088738
939,-0.507486,1.328143,-0.118006
940,-0.46727,1.081322,-0.069963
941,-0.124933,1.191668,0.074573
942,-0.102752,1.318413,-0.060326
943,-0.096499,1.232875,-0.114113
944,-0.221051,0.621867,-0.241155
945,-0.251188,0.363788,-0.201988
946,-0.339042,-0.000649,0.033525
947,-0.33395,-0.278036,0.118815
948,-0.295794,-0.516265,0.109494
949,-0.288741,-0.697173,0.076716
950,-0.282124,-0.744864,-0.00894
951,-0.302894,-0.698688,-0.155057
952,-0.341244,-0.506331,-0.292533
953,-0.330586,-0.448962,-0.318707
954,-0.315601,-0.237666,-0.311026
955,-0.254528,0.064461,-0.33705
956,-0.118892,0.245489,-0.339584
957,-0.085528,0.325413,-0.313864
958,0.009657,0.131999,-0.313713
959,0.013833,-0.050355,-0.176379
960,-0.107598,-0.006014,-0.060902
961,-0.347595,0.554346,0.114405
962,-0.421692,0.722572,0.008816
963,-0.315162,0.523676,-0.077876
964,-0.139205,0.420157,-0.019257
965,-0.111614,0.435384,-0.024757
966,-0.085461,0.289386,0.048192
967,-0.008682,0.20499,0.040346
968,0.052931,0.169065,-0.049385
969,0.042969,-0.034884,-0.158126
970,-0.050244,-0.196671,-0.29486
971,-0.004836,-0.310304,-0.318251
972,0.120655,-0.207666,-0.29881
973,0.207738,-0.330195,-0.347706
974,0.29211,-0.39731,-0.342211
975,0.24205,-0.431389,-0.331661
976,0.127982,-0.352519,-0.396369
977,0.053519,-0.14074,-0.489895
978,0.050149,-0.002435,-0.520837
979,0.173516,0.327855,-0.377886
980,0.068409,0.349693,-0.453496
981,0.023831,0.364693,-0.598472
982,0.168756,0.369722,-0.859093
983,0.300826,0.096017,-0.69578
984,0.256448,-0.100767,-0.461026
985,0.141378,-0.061989,-0.279798
986,-0.007878,0.014294,-0.252503
987,0.019244,-0.040671,-0.262123
988,-0.010584,0.049048,-0.173752
989,-0.023989,0.411616,-0.135006
990,-0.076847,0.523464,-0.053533
991,-0.136896,0.538576,-0.024048
992,-0.008633,1.112037,-0.284927
993,0.061848,1.192106,-0.339194
994,0.130181,1.034997,-0.538682
995,0.407307,0.98528,-0.692487
996,0.421689,0.742093,-0.623222
997,0.130704,0.273767,-0.506003
998,-0.200025,0.029517,-0.330896
999,-0.365448,-0.491905,-0.223507
1000,-0.352118,-0.869331,-0.291873
1001,-0.201972,-1.169125,-0.206454
1002,-0.104004,-1.412741,-0.065378
1003,-0.237654,-1.440212,-0.108045
1004,-0.178838,-1.417082,-0.045744
1005,-0.072799,-0.833233,0.146799
1006,-0.020663,-0.43386,-0.064471
1007,-0.127906,-0.155076,-0.355929
1008,-0.117474,-0.609461,0.003588
1009,-0.410662,-0.448058,0.379454
1010,-0.550116,2.166009,-0.112794
1011,0.023213,2.213209,-0.420034
1012,0.200236,0.155018,-0.364818
1013,0.595172,0.784554,0.013142
1014,0.602556,0.880661,-0.069685
1015,0.195686,0.87246,-0.470782
1016,0.645781,0.724372,-0.430014
1017,0.784787,0.661147,-0.437409
1018,0.385319,0.502258,-0.502011
1019,0.280975,0.278165,-0.559175
1020,0.19332,-0.482135,-0.527886
1021,-0.033422,-0.620173,-0.272788
1022,-0.055802,-0.714374,-0.3468
1023,-0.128568,-0.775018,-0.089524
1024,-0.118967,-0.98513,0.040364
1025,0.038844,-0.959874,0.144212
1026,0.027577,-1.036159,0.109574
1027,-0.459519,-0.959285,-0.215725
1028,-0.522868,-0.703309,-0.223012
1029,-0.253895,0.988952,-0.385007
1030,0.674536,1.285229,-0.334213
1031,0.762991,0.806026,-0.251209
1032,0.40239,0.574131,-0.501652
1033,0.111341,1.221979,-0.632763
1034,0.178448,1.509391,-0.593552
1035,0.183947,1.480725,-0.54688
1036,-0.162012,0.435221,-0.484883
1037,-0.189492,0.199482,-0.343376
1038,-0.12747,-0.18003,-0.212282
1039,0.048236,-0.660142,-0.026221
1040,0.113691,-1.089705,0.113528
1041,-0.114301,-1.379064,0.209461
1042,-0.471259,-1.476411,-0.005059
1043,-0.490313,-1.381161,0.166961
1044,-0.317712,-1.045106,0.221058
1045,-0.165221,-0.362046,-0.137617
1046,0.014307,-0.304548,-0.083678
1047,-0.14885,-0.613428,0.444452
1048,-0.259471,-0.26685,0.3676
1049,-0.113037,1.719066,-0.395003
1050,0.094045,-0.046805,-0.337489
1051,0.118036,-0.269134,-0.291336
1052,0.540705,0.73895,-0.008934
1053,0.494804,1.200955,-0.262519
1054,0.335528,1.309858,-0.604622
1055,0.833042,0.926272,-0.497477
1056,0.82986,0.51718,-0.390421
1057,0.346018,0.346847,-0.433799
1058,0.145319,-0.050015,-0.554778
1059,-0.057595,-0.640441,-0.437802
1060,-0.128538,-0.558422,-0.436847
1061,-0.032888,-0.745128,-0.148944
1062,0.013592,-0.956907,-0.107298
1063,0.028835,-1.190883,-0.102255
1064,0.146428,-1.244178,-0.030684
1065,0.099633,-1.151075,-0.035643
1066,-0.029164,-1.035142,0.016193
1067,-0.141753,0.275289,0.156375
1068,-0.00337,1.075391,0.030693
1069,-0.06843,1.667091,-0.37596
1070,-0.1264,1.292355,-0.457728
1071,0.013917,0.532545,-0.449023
1072,0.652672,0.967285,-0.695018
1073,0.676226,1.185157,-0.694618
1074,0.508586,1.158171,-0.54607
1075,-0.29315,0.526504,-0.518476
1076,-0.398023,0.267443,-0.442301
1077,-0.259045,-0.291583,-0.110982
1078,0.280513,-1.219321,-0.052652
1079,0.334759,-1.359408,-0.085341
1080,0.033288,-1.472571,-0.083141
1081,-0.45086,-1.246834,0.288578
1082,-0.329011,-0.858305,0.336034
1083,-0.261037,-0.258717,-0.350709
1084,-0.094392,-0.2541,0.233414
1085,-0.220636,0.076879,0.586126
1086,-0.157411,0.508235,0.308633
1087,-0.194696,0.363318,-0.425427
1088,0.097105,-0.012532,-0.327309
1089,0.328756,0.359683,-0.236583
1090,0.777857,0.659655,-0.103059
1091,0.462378,1.106192,-0.334103
1092,0.605965,0.888708,-0.596143
1093,0.8604,0.954337,-0.473811
1094,0.490856,0.63561,-0.372574
1095,0.324175,0.490899,-0.270478
1096,0.093076,0.067562,-0.221617
1097,-0.074378,-0.589176,-0.440322
1098,-0.214569,-0.552777,-0.270267
1099,-0.294568,-0.691861,-0.267161
1100,-0.081435,-0.961118,-0.019069
1101,0.009671,-1.057819,0.020082
1102,0.160097,-1.203353,0.127331
1103,0.019452,-1.216457,-0.024684
1104,-0.024702,-0.823598,-0.011668
1105,-0.047578,-0.639111,-0.007346
1106,0.027006,1.12288,0.18097
1107,-0.006021,1.137814,0.153572
1108,0.122387,0.668579,-0.109985
1109,0.058395,0.823343,-0.283161
1110,0.112774,0.556207,-0.349789
1111,0.194404,0.989682,-0.686131
1112,0.183232,1.425762,-0.572935
1113,-0.131746,0.838758,-0.599836
1114,-0.213107,0.237774,-0.469327
1115,-0.064008,-0.08842,-0.224005
1116,0.1352,-0.648247,-0.088419
1117,0.321574,-1.112334,-0.024617
1118,0.111213,-1.315561,0.004605
1119,-0.404234,-1.255166,0.018023
1120,-0.481764,-1.32137,0.353373
1121,-0.41742,-1.158598,0.3667
1122,-0.137992,-0.031467,-0.102707
1123,-0.054422,-0.583132,-0.063391
1124,-0.205631,-0.69136,0.675162
1125,-0.223435,-0.570634,0.565024
1126,-0.607568,2.394205,-0.016284
1127,0.162785,0.187906,-0.270849
1128,0.337121,0.011558,0.007674
1129,0.646347,0.558846,-0.007965
1130,0.571923,1.21037,-0.415735
1131,0.522349,0.942411,-0.621383
1132,0.906174,0.671525,-0.57802
1133,0.873831,0.506008,-0.631085
1134,0.60885,0.493922,-0.609901
1135,0.446475,0.121427,-0.571051
1136,0.125622,-0.486992,-0.248793
1137,-0.231499,-0.486836,-0.284972
1138,-0.265119,-0.775661,-0.140126
1139,-0.142897,-0.96004,0.125757
1140,-0.1276,-1.018895,0.179632
1141,0.021472,-0.977554,0.134636
1142,-0.056163,-1.041319,0.007651
1143,-0.224747,-1.001366,-0.028612
1144,-0.324762,-0.367617,0.03881
1145,-0.016083,0.938724,0.255499
1146,0.063066,1.118623,0.430035
1147,-0.019135,0.802702,-0.278003
1148,-0.064504,1.218347,-0.389167
1149,0.224541,0.63937,-0.534922
1150,0.387414,0.970055,-0.710289
1151,0.291505,1.229851,-0.528669
1152,0.072797,1.059544,-0.552813
1153,-0.375312,0.332425,-0.444501
1154,-0.171067,-0.423099,-0.096609
1155,0.150382,-0.818544,0.083933
1156,0.289457,-1.077703,-0.080508
1157,0.177138,-1.143316,0.074319
1158,-0.193757,-1.266617,0.06867
1159,-0.447204,-1.320266,0.132898
1160,-0.452853,-1.174397,0.343566
1161,-0.34091,-0.853041,0.209421
1162,-0.12854,-0.285789,0.219906
1163,-0.104045,-0.042304,0.479658
1164,-0.148071,0.322907,0.322574
1165,-0.065042,0.26092,-0.256803
1166,0.071552,0.097262,-0.372674
1167,0.219434,0.234989,-0.096193
1168,0.601952,0.744936,-0.028726
1169,0.386471,1.540461,-0.335191
1170,0.407698,1.28519,-0.596655
1171,0.933113,0.577725,-0.396739
1172,0.65371,0.364105,-0.442337
1173,0.4093,0.284467,-0.419144
1174,0.25746,0.401695,-0.300904
1175,0.066322,-0.175409,-0.390937
1176,-0.083758,-0.49004,-0.406016
1177,-0.141651,-0.97395,-0.310808
1178,0.010706,-1.084543,-0.141254
1179,0.035641,-1.144404,0.146695
1180,0.085399,-0.899646,0.076103
1181,-0.022642,-0.837534,-0.11577
1182,-0.165237,-0.820236,-0.233281
1183,-0.229702,-0.620569,0.121579
1184,0.060168,0.981723,0.229614
1185,0.086537,1.322521,0.222129
1186,0.13408,0.968924,0.093178
1187,-0.032059,0.841302,-0.268927
1188,-0.034453,1.017892,-0.404064
1189,0.374509,0.968684,-0.447624
1190,0.529183,1.344839,-0.688166
1191,0.299056,1.351346,-0.619138
1192,-0.041171,0.564786,-0.560936
1193,-0.158462,-0.010725,-0.379737
1194,0.148431,-0.463265,-0.022187
1195,0.089629,-1.234991,-0.046966
1196,0.007522,-1.341152,-0.042737
1197,-0.16165,-1.395874,0.143282
1198,-0.37993,-1.338722,0.251645
1199,-0.393832,-1.206116,0.322824
1200,-0.387012,-0.527019,0.166077
1201,-0.391,-0.165082,-0.331539
1202,-0.030601,-0.7054,0.066931
1203,-0.085742,-1.174094,0.155991
1204,-0.302659,-0.819544,0.685407
1205,-0.484916,2.001933,0.098725
1206,0.682082,1.474368,-0.619929
1207,0.514885,-0.379459,-0.116989
1208,0.726306,0.340832,-0.078764
1209,0.690205,0.759236,-0.130393
1210,0.283648,1.182571,-0.426454
1211,0.596001,1.095735,-0.449371
1212,0.94289,0.538778,-0.474416
1213,0.186248,0.31325,-0.602668
1214,0.143545,-0.103822,-0.306244
1215,0.075952,-0.293175,-0.318391
1216,-0.303193,-0.621711,-0.465156
1217,0.045774,-0.881713,-0.217817
1218,0.111857,-1.015761,0.006122
1219,0.022994,-1.249864,0.22467
1220,0.036054,-1.056707,0.209734
1221,-0.15303,-0.911179,-0.001827
1222,-0.278463,-0.344938,0.251698
1223,-0.169425,1.255181,0.007298
1224,-0.642667,1.231812,-0.032694
1225,-0.248103,0.805221,-0.02916
1226,0.023912,1.45343,-0.329608
1227,0.552833,1.537333,-0.699008
1228,0.948988,1.22568,-0.804189
1229,0.583039,0.63921,-0.569189
1230,-0.053135,0.17988,-0.356743
1231,-0.290442,-0.032893,-0.274583
1232,-0.348154,-0.646036,-0.137402
1233,-0.245352,-1.066635,-0.069366
1234,-0.155548,-1.301341,0.167237
1235,-0.261753,-1.545376,0.218386
1236,-0.414832,-1.464641,0.200973
1237,-0.341386,-1.341263,0.381207
1238,-0.117024,-0.213508,-0.025639
1239,-0.187646,0.095425,-0.324012
1240,-0.035701,-0.32966,0.411288
1241,-0.072115,-0.483611,0.294527
1242,-0.192813,0.519099,0.05144
1243,-0.102134,0.820628,-0.302317
1244,0.373076,0.606498,-0.322066
1245,0.52561,0.420014,0.111643
1246,0.22497,0.770726,0.044106
1247,0.09009,1.213059,-0.587533
1248,0.661944,0.805498,-0.737642
1249,1.037193,0.698603,-0.486956
1250,0.64653,0.483183,-0.50807
1251,0.276591,-0.066812,-0.439587
1252,0.134818,-0.549746,-0.350647
1253,-0.232688,-0.499168,-0.269623
1254,-0.231493,-0.610568,-0.263554
1255,-0.180316,-0.660292,-0.096122
1256,-0.14042,-1.239518,0.177171
1257,-0.081378,-1.187725,0.194439
1258,-0.065209,-1.145637,0.149065
1259,-0.304534,-0.653832,-0.008611
1260,-0.254747,-0.446386,0.091599
1261,0.218114,0.861758,0.412149
1262,0.243529,1.271472,-0.046281
1263,0.043334,1.381841,-0.388624
1264,-0.159816,1.097281,-0.5046
1265,0.098151,0.976079,-0.515892
1266,0.55016,1.230952,-0.679419
1267,0.268868,0.937733,-0.646747
1268,-0.006047,0.493278,-0.583094
1269,-0.112026,0.249196,-0.510805
1270,0.037413,-0.68761,-0.082869
1271,0.06272,-0.994065,-0.121623
1272,0.044632,-1.153134,-0.147452
1273,-0.353267,-1.538903,0.15584
1274,-0.69978,-1.472436,0.01841
1275,-0.659673,-1.479527,0.398313
1276,-0.165245,-0.438089,0.325093
1277,-0.23781,-0.012872,-0.087172
1278,0.003318,-0.071461,0.323188
1279,-0.069834,-0.289887,0.515876
1280,-0.159472,0.360653,-0.051372
1281,0.053357,-0.377973,-0.585682
1282,0.364993,0.250985,-0.409439
1283,0.904522,0.998066,-0.043182
1284,0.466855,1.254569,-0.019288
1285,0.178237,0.91502,-0.511094
1286,0.652729,0.913223,-0.679202
1287,0.905044,0.859954,-0.590807
1288,0.554412,0.458727,-0.447836
1289,0.300141,-0.362489,-0.35799
1290,0.272528,-0.458522,-0.220521
1291,-0.28868,-0.601857,-0.436498
1292,-0.236614,-0.572832,-0.223853
1293,-0.015441,-0.69075,-0.050008
1294,-0.06444,-1.081557,0.096949
1295,0.019421,-1.129328,0.038829
1296,-0.016214,-1.240666,-0.220207
1297,0.011205,-0.966983,-0.267116
1298,0.094519,-0.485908,0.089871
1299,0.20277,0.911726,0.264815
1300,0.073545,1.36019,0.450632
1301,0.052082,1.004266,-0.18532
1302,-0.021196,1.22002,-0.286706
1303,0.034091,0.91162,-0.547857
1304,0.204916,1.18514,-0.560516
1305,0.262255,1.521694,-0.444819
1306,-0.004963,0.736856,-0.43531
1307,-0.036508,0.059577,-0.285411
1308,0.112399,-0.340722,-0.098624
1309,0.128195,-1.15486,0.03427
1310,0.032889,-1.553954,0.101257
1311,-0.148539,-1.88038,-0.003031
1312,-0.558575,-1.764365,0.10156
1313,-0.522617,-1.381797,0.534003
1314,-0.405689,-1.107175,0.444404
1315,-0.207534,0.096889,-0.305635
1316,-0.002047,-0.220803,-0.12271
1317,-0.279952,-0.464307,0.628465
1318,-0.555289,0.069066,0.681536
1319,-0.25311,2.138502,-0.813858
1320,0.599969,0.522338,-0.190569
1321,0.825597,0.392023,0.118299
1322,0.787275,0.547488,0.064768
1323,0.593777,0.960377,-0.119681
1324,0.502023,1.336043,-0.835679
1325,1.04057,1.045229,-0.717136
1326,0.448203,0.180418,-0.555764
1327,-0.199037,-0.859992,-0.31352
1328,-0.235995,-0.268442,-0.376978
1329,-0.330034,-0.566768,-0.224428
1330,-0.032413,-0.782203,-0.311648
1331,0.103936,-0.891402,-0.00844
1332,0.090596,-1.256694,-0.057365
1333,0.027018,-1.297331,0.009446
1334,-0.107026,-1.195592,-0.196864
1335,-0.098366,-0.842355,-0.006142
1336,-0.192608,-0.287502,0.08906
1337,0.181157,1.14849,0.477749
1338,0.251015,2.029393,0.60554
1339,-0.341983,1.255863,-0.500895
1340,-0.260838,1.4143,-0.185951
1341,0.41665,0.895422,-0.576666
1342,0.909929,1.077906,-0.696222
1343,0.595683,1.102321,-0.49883
1344,0.006579,0.526599,-0.276641
1345,-0.280159,-0.142732,-0.168814
1346,-0.282683,-0.438651,-0.128371
1347,-0.148856,-1.218918,-0.113285
1348,-0.142904,-1.601478,0.186538
1349,-0.245813,-1.827408,0.104348
1350,-0.418667,-1.739781,0.224901
1351,-0.139176,-0.695192,0.318552
1352,-0.208125,0.211077,-0.275388
1353,-0.231614,0.274913,-0.328472
1354,-0.284325,-0.708601,0.445433
1355,-0.340263,-0.67301,0.553811
1356,-0.095781,2.988305,0.06007
1357,0.330846,-0.011099,0.06432
1358,0.152906,-0.574527,0.137041
1359,0.267666,0.172575,0.009648
1360,-0.070369,1.320631,-0.908708
1361,0.141257,1.713495,-1.061677
1362,0.881444,1.34638,-1.131766
1363,1.355067,0.314857,-0.438307
1364,0.470339,0.09219,-0.306335
1365,0.040136,0.172867,-0.299931
1366,-0.349971,-0.216478,-0.305607
1367,-0.796888,-0.503016,-0.252192
1368,-0.337397,-0.71097,0.000792
1369,-0.075814,-1.062542,0.165291
1370,-0.019445,-1.138506,0.229364
1371,-0.149591,-1.176898,0.075076
1372,-0.39148,-1.140625,-0.23802
1373,-0.32606,-0.683711,-0.066294
1374,-0.265658,-0.044172,0.107009
1375,0.181678,1.118007,0.476716
1376,0.189387,1.337609,0.270636
1377,-0.071542,0.906624,-0.336543
1378,-0.169031,1.077394,-0.432337
1379,-0.088805,0.95449,-0.659774
1380,0.466429,1.428321,-0.599095
1381,0.4047,1.077388,-0.490824
1382,0.124626,0.357161,-0.376115
1383,-0.007279,-0.069273,-0.275205
1384,-0.025761,-0.458727,-0.21147
1385,0.057601,-1.134944,-0.202843
1386,0.111335,-1.505929,0.071209
1387,-0.228162,-1.776716,0.189303
1388,-0.462225,-1.67159,0.323955
1389,-0.363724,-1.121036,0.469492
1390,-0.184959,-0.130988,0.007977
1391,-0.261139,0.17124,-0.409887
1392,0.032617,-0.46362,-0.056903
1393,-0.174353,-1.202498,0.796888
1394,-0.449515,-0.050809,0.895709
1395,-0.790156,3.507332,0.306112
1396,0.435366,-0.147533,-0.198397
1397,0.095684,-0.280376,-0.175538
1398,0.486986,0.586184,-0.134272
1399,0.471016,1.490316,-0.85157
1400,0.525666,1.644079,-0.892286
1401,1.343274,1.113996,-0.613667
1402,0.549414,-0.038868,-0.470502
1403,-0.124442,-0.347232,-0.14919
1404,-0.152562,-0.089516,-0.079121
1405,-0.537029,-0.195216,-0.229059
1406,-0.509407,-0.693314,-0.179121
1407,-0.128583,-0.918458,-0.23748
1408,0.196064,-1.309258,-0.074323
1409,0.288992,-1.385202,-0.009801
1410,0.160295,-1.431462,0.089041
1411,0.096769,-1.081409,-0.096091
1412,0.033786,-0.679943,0.031209
1413,0.113146,0.096001,0.13712
1414,0.544513,1.526741,0.332925
1415,0.205046,2.168761,-0.145496
1416,-0.492118,1.227864,-0.207257
1417,-0.092401,0.550136,-0.455791
1418,0.192196,0.614181,-0.545239
1419,0.557715,1.087906,-0.517609
1420,0.278689,1.074435,-0.235158
1421,-0.080362,0.534081,-0.368973
1422,-0.21123,0.094694,-0.36804
1423,-0.038492,-0.392744,-0.293402
1424,0.306728,-1.004343,-0.069069
1425,0.345035,-1.485687,0.154093
1426,-0.248529,-1.749875,0.056725
1427,-0.427301,-1.57778,0.36531
1428,-0.336746,-0.947001,0.550531
1429,-0.33883,-0.234844,0.121503
1430,-0.16091,-0.119277,-0.32082
1431,-0.12791,-0.455818,0.19433
1432,-0.40833,-0.220301,0.681768
1433,-0.405145,2.962222,-0.750063
1434,-0.011953,0.17017,-0.119426
1435,0.816911,0.709612,-0.421625
1436,0.790261,0.383194,-0.04262
1437,0.615513,1.26131,-0.679956
1438,0.847224,1.147886,-0.83954
1439,0.992034,0.764924,-0.362409
1440,0.25041,-0.015707,-0.294855
1441,-0.357796,-0.84113,-0.126794
1442,-0.398245,-0.408269,-0.138437
1443,-0.412602,-0.417827,-0.062882
1444,-0.038957,-0.473949,-0.131666
1445,0.102814,-1.136345,0.021893
1446,0.233001,-1.481308,-0.093522
1447,0.026699,-1.50361,-0.03897
1448,0.096044,-1.114456,-0.012941
1449,0.144945,-0.672017,0.086449
1450,0.161198,-0.17094,0.176632
1451,0.257857,1.022835,0.553594
1452,-0.362089,1.828194,-0.156731
1453,-0.143834,1.389106,-0.338356
1454,0.065887,0.6132,-0.373322
1455,0.354546,0.372134,-0.467806
1456,0.729426,1.254353,-0.753709
1457,0.309501,1.345307,-0.397173
1458,-0.340349,0.668269,-0.547402
1459,-0.511455,0.302351,-0.465312
1460,-0.053196,-0.417735,-0.215903
1461,0.398893,-1.144807,-0.011485
1462,0.3987,-1.50849,0.294611
1463,0.131578,-2.051024,0.123507
1464,-0.479442,-1.539757,0.419912
1465,-0.542531,-0.99596,0.581592
1466,-0.389371,0.15027,-0.01806
1467,-0.383233,0.167077,-0.21962
1468,-0.100644,-0.472292,0.75163
1469,-0.170049,-0.651208,0.727228
1470,-0.458531,-0.131896,0.598864
1471,0.174454,0.937145,-0.611671
1472,0.544113,0.703198,-0.091122
1473,0.718204,0.326002,-0.104059
1474,0.73224,0.788952,-0.31001
1475,0.839794,1.195882,-0.674796
1476,0.871104,1.151855,-0.906432
1477,0.899925,0.352674,-0.487239
1478,0.157544,-0.17326,-0.033658
1479,-0.337816,-0.042146,0.020704
1480,-1.023561,0.172668,0.141473
1481,-0.636321,-0.328783,-0.07626
1482,-0.189333,-0.746132,-0.074065
1483,-0.071573,-1.247301,0.016212
1484,0.063656,-1.473108,-0.009673
1485,0.139938,-1.571773,-0.091269
1486,0.052041,-1.111316,0.010334
1487,0.134662,-0.522813,0.115165
1488,0.223151,0.64303,0.131295
1489,0.127037,1.347425,0.316054
1490,-0.077994,1.240994,-0.101227
1491,-0.330049,1.596357,-0.2847
1492,0.054945,1.021807,-0.616501
1493,0.390748,1.428186,-0.682299
1494,0.343416,1.248999,-0.315345
1495,-0.12716,0.639827,-0.26745
1496,-0.158112,0.029271,-0.189792
1497,-0.103178,-0.420411,-0.270824
1498,0.150584,-0.918049,-0.156561
1499,0.341689,-1.288894,0.041912
1500,0.113568,-1.740857,0.033401
1501,-0.453233,-1.68727,0.029969
1502,-0.478965,-1.399166,0.503274
1503,-0.254349,-0.601608,0.389722
1504,-0.347736,-0.002039,-0.192385
1505,0.037323,-0.279577,-0.124067
1506,-0.191982,-0.658671,0.617082
1507,-0.3487,-0.370385,0.694985
1508,-0.757825,2.754032,-0.186506
1509,0.284412,0.090282,0.005789
1510,0.329557,0.559862,-0.137051
1511,0.283443,0.631496,0.053515
1512,0.204158,0.950489,-0.274897
1513,0.518914,0.994868,-0.687626
1514,0.885626,0.959852,-0.534322
1515,0.693516,0.41683,-0.47803
1516,0.114266,0.093527,-0.360341
1517,-0.055121,-0.228069,-0.146133
1518,-0.28835,-0.241262,-0.325593
1519,-0.279281,-0.478071,-0.298901
1520,-0.185355,-0.709523,0.074043
1521,-0.120727,-1.006951,0.180598
1522,-0.11135,-1.156554,0.064221
1523,-0.252223,-1.440107,-0.056044
1524,-0.297926,-1.097466,-0.170455
1525,-0.241386,-0.625027,0.091889
1526,-0.008554,0.415482,0.223019
1527,0.364088,1.241894,0.261951
1528,0.36519,1.290647,-0.302794
1529,-0.114256,1.256609,-0.366649
1530,0.031406,0.740132,-0.54519
1531,0.363834,1.210053,-0.645875
1532,0.522284,1.282668,-0.502376
1533,-0.050335,0.602565,-0.361105
1534,-0.221129,0.234838,-0.265731
1535,-0.181317,-0.181832,-0.175356
1536,0.061864,-0.718903,-0.119036
1537,0.270673,-1.064769,-0.074641
1538,0.195067,-1.435413,0.161458
1539,-0.240062,-1.608335,0.003467
1540,-0.425557,-1.322964,0.279736
1541,-0.380863,-0.769142,0.257985
1542,-0.24689,-0.260469,-0.003827
1543,-0.243347,-0.275055,0.020604
1544,-0.313275,-0.424599,0.561778
1545,-0.374629,-0.060343,0.559991
1546,-0.115039,2.099118,-0.331712
1547,0.029821,-0.232952,-0.324348
1548,0.389813,0.156434,-0.074961
1549,0.800334,0.386352,-0.015987
1550,0.434584,0.89721,-0.278551
1551,0.183877,1.246547,-0.824711
1552,0.78609,0.901278,-0.610251
1553,0.970031,0.312337,-0.513611
1554,0.460089,0.134111,-0.31565
1555,0.139889,0.075585,-0.219824
1556,-0.069396,0.047676,-0.226539
1557,-0.332825,-0.598581,-0.213955
1558,-0.426683,-0.821837,-0.087451
1559,-0.325396,-0.878779,0.00226
1560,-0.033943,-1.119886,0.088157
1561,0.222216,-1.323423,-0.002108
1562,-0.050003,-0.940123,0.068058
1563,-0.099297,-0.496426,0.214587
1564,0.305436,1.514845,0.260239
1565,0.230205,1.830011,0.223983
1566,-0.042002,1.278255,-0.203701
1567,-0.223446,0.748873,-0.400002
1568,0.284837,0.78964,-0.33721
1569,0.551386,1.158173,-0.415242
1570,0.251271,1.089902,-0.404647
1571,-0.088163,0.366112,-0.366824
1572,-0.183397,-0.025198,-0.301284
1573,-0.067084,-0.306967,-0.185836
1574,0.060072,-0.975295,-0.109746
1575,0.099006,-1.31167,0.06557
1576,0.029796,-1.667136,0.129638
1577,-0.451857,-1.524992,-0.064791
1578,-0.523962,-1.374868,0.640179
1579,-0.186334,-0.398357,0.209987
1580,-0.263684,-0.032182,-0.230324
1581,-0.020343,-0.615994,-0.059336
1582,-0.157704,-1.064619,0.579453
1583,-0.379638,-0.72952,0.686206
1584,-0.117346,2.208349,-0.100823
1585,0.533042,1.751931,0.006831
1586,0.007882,-0.463969,-0.085829
1587,0.357801,0.497951,0.014606
1588,0.478167,1.262345,-0.518778
1589,0.852197,1.362748,-0.931677
1590,1.195841,1.174704,-0.870462
1591,1.038268,0.267525,-0.542881
1592,0.416677,-0.330064,-0.326865
1593,0.122239,-0.251968,0.032526
1594,-0.422163,-0.228326,-0.109021
1595,-0.911584,-0.424405,-0.132782
1596,-0.498131,-0.617652,0.074867
1597,-0.123605,-1.208688,0.022037
1598,0.18198,-1.26491,0.094883
1599,0.112403,-1.165781,0.119212
1600,-0.044075,-0.989348,-0.092708
1601,-0.200283,-0.64289,-0.040654
1602,-0.08994,0.11199,0.034625
1603,0.337154,1.312307,0.215276
1604,0.494402,1.413538,-0.049841
1605,0.426123,1.078255,-0.244708
1606,0.003123,0.789761,-0.533294
1607,0.024049,1.287031,-0.784684
1608,0.029002,1.290294,-0.761741
1609,-0.418097,0.966052,-0.387431
1610,0.02596,-0.085278,-0.164921
1611,0.197657,-0.487093,-0.312578
1612,0.401457,-0.852954,-0.04179
1613,0.287187,-1.210485,0.158067
1614,0.109127,-1.364017,0.195837
1615,-0.565996,-1.395265,0.134087
1616,-0.469914,-1.271965,0.315894
1617,-0.21541,-0.79602,0.329557
1618,-0.170561,-0.313938,0.144429
1619,-0.1669,-0.327831,0.192011
1620,-0.428403,-0.393187,0.64271
1621,-0.60869,1.074541,0.373917
1622,0.026513,0.409275,-0.216962
1623,0.256817,-0.102289,-0.139414
1624,0.627099,-0.1397,-0.077036
1625,0.763072,0.55234,-0.082297
1626,0.595062,1.712647,-0.729926
1627,0.554344,1.094247,-0.691053
1628,0.843399,0.51337,-0.446438
1629,0.836486,0.32344,-0.480129
1630,0.430791,0.172895,-0.132312
1631,0.140218,0.528852,0.014169
1632,-0.465506,-5.00E-05,-0.125363
1633,-1.02152,-0.460794,-0.151264
1634,-0.464935,-0.645868,0.153346
1635,-0.124545,-1.156726,-0.053016
1636,0.122265,-1.2521,-0.039174
1637,0.088435,-1.286336,-0.235391
1638,-0.094682,-1.290346,-0.25738
1639,-0.269992,-0.714499,-0.158152
1640,-0.273685,0.020925,0.064521
1641,0.25022,0.890259,0.46084
1642,0.537581,1.118402,0.353809
1643,0.214329,1.230635,-0.396812
1644,-0.154471,1.180336,-0.521324
1645,-0.368605,1.042499,-0.585682
1646,0.063101,1.551023,-0.502693
1647,0.263816,1.13258,-0.365028
1648,0.198452,0.12405,-0.298529
1649,0.200252,-0.559152,-0.357412
1650,0.166125,-1.071629,-0.170183
1651,-0.004122,-1.249704,0.136847
1652,-0.395117,-1.443895,0.319387
1653,-0.600702,-1.635843,0.378933
1654,-0.702119,-1.485613,0.46707
1655,-0.593349,-1.270225,0.549097
1656,-0.072589,0.086165,0.214698
1657,0.305273,-0.008084,-0.182172
1658,0.097852,-1.149112,0.376761
1659,-0.016281,-1.335894,0.8144
1660,-0.652464,0.47192,0.54062
1661,0.013375,2.390263,-0.764925
1662,0.45911,0.269652,-0.464249
1663,0.61739,0.510318,-0.132601
1664,0.829111,0.923626,-0.376614
1665,0.75504,1.475941,-0.720655
1666,0.99695,1.122208,-0.602608
1667,1.09737,0.531326,-0.41718
1668,0.268823,0.182829,-0.291199
1669,-0.529274,-0.427382,-0.038691
1670,-0.968829,-0.256531,-0.134045
1671,-0.291034,-0.500629,-0.037104
1672,0.137972,-1.043677,0.029907
1673,0.231427,-1.166567,0.256004
1674,-0.093955,-1.193768,0.105968
1675,-0.371405,-1.274348,-0.028621
1676,-0.382273,-0.949138,-0.080677
1677,-0.28536,-0.771781,0.069948
1678,0.016903,0.479424,0.311735
1679,0.278128,1.099299,0.616251
1680,0.111016,1.443102,-0.146565
1681,-0.144687,0.98846,-0.294137
1682,0.249675,0.851304,-0.400376
1683,0.620153,0.856938,-0.627326
1684,0.496307,1.288372,-0.493395
1685,-0.112746,0.726124,-0.329513
1686,-0.371142,0.4349,-0.395967
1687,-0.342052,0.141118,-0.32731
1688,0.134832,-0.565363,0.119257
1689,0.473173,-1.357403,0.149383
1690,0.428409,-1.677999,0.10196
1691,-0.01515,-1.827383,-0.02315
1692,-0.482428,-1.431992,0.384203
1693,-0.538954,-0.905034,0.44358
1694,-0.425507,0.170682,0.04417
1695,-0.38458,0.183528,-0.145688
1696,-0.108439,-0.479238,-0.063731
1697,-0.279902,-0.723969,0.545628
1698,-0.59642,0.728854,0.490374
1699,0.465193,1.72997,-0.095226
1700,0.253087,-0.178008,-0.144646
1701,0.627577,-0.001234,0.082829
1702,0.653872,0.988779,-0.144439
1703,0.498408,1.395151,-0.254757
1704,0.372065,1.147878,-0.704928
1705,0.582318,0.604409,-0.607602
1706,0.066856,-0.10167,-0.412964
1707,-0.153757,-0.750529,-0.293557
1708,-0.17232,-0.286579,-0.097467
1709,-0.071232,-0.685397,-0.149866
1710,0.094065,-0.886875,-0.045709
1711,0.06608,-1.05891,0.164943
1712,0.156489,-1.165991,0.212417
1713,0.057199,-1.240852,0.1686
1714,-0.226841,-1.044336,-0.139799
1715,-0.249091,-0.512764,0.277622
1716,-0.165384,0.853619,0.199076
1717,-0.249983,1.554696,0.389172
1718,0.474545,0.862649,-0.165312
1719,0.196379,1.522044,-0.180503
1720,0.203451,1.176444,-0.462692
1721,0.518589,1.335731,-0.57121
1722,0.292241,1.015693,-0.377676
1723,-0.031605,0.635511,-0.264517
1724,-0.239149,0.068591,-0.25349
1725,-0.177077,-0.28522,-0.179094
1726,0.019538,-0.915015,-0.032649
1727,-0.086296,-1.42871,0.076659
1728,-0.090426,-1.767523,0.093844
1729,-0.349434,-1.808365,0.041663
1730,-0.394123,-1.442852,0.407812
1731,-0.27992,-0.685053,0.402656
1732,-0.190814,0.221417,-0.253501
1733,0.039127,-0.063383,0.060163
1734,-0.111512,-0.856292,0.453673
1735,-0.419352,-0.630533,0.649117
1736,-0.844942,2.992196,-0.264884
1737,0.705463,0.430594,-0.028975
1738,0.44,-0.184675,-0.121804
1739,0.690628,0.736749,-0.114034
1740,0.677612,1.706551,-0.607015
1741,0.71937,1.193722,-0.58076
1742,1.048989,0.82142,-0.36694
1743,0.587367,0.433206,-0.271812
1744,-0.12592,-0.221347,-0.184025
1745,-0.315788,-0.406045,-0.353702
1746,-0.49671,-0.576635,-0.288875
1747,-0.081299,-0.769742,-0.025169
1748,0.063005,-0.930082,-0.018233
1749,0.191008,-1.28085,0.036375
1750,-0.045186,-1.25298,0.020599
1751,-0.144758,-1.113392,-0.064283
1752,-0.207049,-0.778101,-0.136613
1753,-0.197443,-0.313112,-0.031912
1754,0.01994,0.562939,0.368161
1755,0.281049,1.023013,0.615086
1756,-0.128771,1.860552,0.28903
1757,0.001801,1.303139,-0.172102
1758,0.05112,1.112183,-0.398767
1759,0.502063,1.081899,-0.565898
1760,0.514404,1.497645,-0.377886
1761,0.202408,1.270151,-0.32948
1762,-0.363654,0.269509,-0.314173
1763,-0.376012,-0.04298,-0.209382
1764,-0.234083,-0.142311,-0.152082
1765,0.062249,-1.233562,0.044477
1766,0.232786,-1.735429,0.158738
1767,-0.107345,-1.916298,0.082099
1768,-0.484146,-1.518453,0.348886
1769,-0.539763,-1.40697,0.542085
1770,-0.390873,-0.531175,0.317598
1771,-0.334648,0.073487,-0.217547
1772,-0.187169,-0.41459,0.270755
1773,-0.429041,-0.384326,0.255307
1774,-0.688472,0.696702,0.060835
1775,0.736467,1.265866,-0.064825
1776,0.552932,0.66319,0.065063
1777,0.383291,0.66001,0.285351
1778,0.166769,0.878576,-0.149703
1779,0.361986,1.14153,-0.597815
1780,0.971755,1.022193,-0.663932
1781,0.700013,0.509298,-0.45118
1782,0.710776,0.508631,-0.483992
1783,0.210226,-0.176176,-0.21575
1784,0.150276,-0.197739,-0.073
1785,-0.155373,-0.61897,-0.326892
1786,-0.487194,-0.871262,-0.105042
1787,-0.289722,-0.965126,0.121513
1788,-0.157252,-1.100237,0.134185
1789,0.104729,-1.127817,0.103218
1790,-0.014495,-1.132545,0.007531
1791,-0.107963,-0.958322,0.025135
1792,-0.182974,-0.564877,-0.013416
1793,-0.05379,0.501526,0.177528
1794,0.029176,1.505231,0.271889
1795,0.165689,1.294925,-0.172965
1796,-0.046214,1.222845,-0.277536
1797,0.186723,0.814192,-0.525707
1798,0.621048,0.926161,-0.628754
1799,0.64182,1.222396,-0.474719
1800,-0.00311,0.96344,-0.313867
1801,-0.410699,0.470655,-0.370382
1802,-0.193962,-0.356673,-0.040474
1803,-0.022547,-0.894824,-0.006476
1804,0.132149,-1.350013,0.170904
1805,0.000685,-1.727184,0.185586
1806,-0.256281,-1.722444,0.091806
1807,-0.382214,-1.511654,0.646559
1808,-0.256481,-0.486054,0.360619
1809,-0.240267,0.126001,0.056009
1810,-0.095381,-0.251492,-0.055546
1811,-0.173515,-0.742396,0.389902
1812,-0.264743,-0.864325,0.608573
1813,-0.532439,1.096467,0.0444
1814,0.240261,2.524787,-0.771642
1815,0.246092,2.523233,-0.770256
1816,0.522107,0.286485,0.038264
1817,0.436161,0.558502,-0.133204
1818,0.47278,1.10076,-0.406743
1819,0.831657,1.095087,-0.555188
1820,0.694158,0.709713,-0.491552
1821,0.184511,0.063389,-0.411968
1822,-0.263327,-0.927904,-0.342521
1823,-0.228213,-0.505444,-0.21287
1824,-0.303493,-0.346132,-0.196456
1825,-0.119095,-0.546003,-0.12006
1826,-0.074592,-0.942989,-0.011174
1827,0.020785,-1.250781,0.183515
1828,0.006234,-1.413625,0.156115
1829,-0.057055,-1.463857,0.049212
1830,-0.111397,-1.042253,-0.013461
1831,-0.132561,-0.695802,-0.012045
1832,-0.00876,-0.06236,0.238562
1833,0.376967,1.543653,0.571941
1834,0.024944,2.292745,-0.176867
1835,0.035365,1.038892,-0.121089
1836,0.045793,0.86518,-0.484197
1837,0.475121,1.026473,-0.534003
1838,0.572268,1.540473,-0.432463
1839,0.120108,1.025554,-0.254509
1840,-0.207468,0.411312,-0.326139
1841,-0.290617,-0.008123,-0.247688
1842,-0.115031,-0.356126,-0.107026
1843,0.067142,-0.872441,0.068979
1844,0.074939,-1.365761,0.249156
1845,0.041232,-1.529859,0.311104
1846,-0.390369,-1.544919,0.417612
1847,-0.430353,-1.037348,0.399438
1848,-0.34473,-0.642256,0.299651
1849,-0.046949,-0.32691,-0.048685
1850,-0.022467,-0.31719,0.395763
1851,-0.07143,-0.245551,0.661955
1852,-0.322166,0.89124,0.186561
1853,0.101852,0.950075,-0.636178
1854,0.261479,0.258999,-0.443483
1855,0.764029,0.701717,0.222164
1856,0.404785,0.42323,0.180517
1857,0.210461,0.80307,-0.037249
1858,0.458628,0.870498,-0.55032
1859,0.677345,0.672701,-0.37386
1860,0.518649,0.391473,-0.255366
1861,-0.115373,-0.273766,-0.118941
1862,-0.07003,-0.250827,-0.158854
1863,-0.153396,-0.424088,-0.304581
1864,-0.169306,-0.728748,-0.126062
1865,-0.087347,-0.910687,-0.116762
1866,0.040516,-1.047328,0.050901
1867,0.053397,-1.255958,-0.012378
1868,0.115307,-1.255113,0.238247
1869,-0.062401,-1.178779,0.232235
1870,-0.113125,-0.436477,0.378871
1871,0.446911,1.215837,0.40579
1872,-0.005459,3.071396,0.295363
1873,-0.869739,0.910009,-0.098944
1874,-0.605098,0.856418,-0.116701
1875,0.251245,0.656595,-0.142849
1876,0.640116,0.814214,-0.148461
1877,0.368333,0.689236,-0.089724
1878,0.124545,0.494057,-0.064292
1879,-0.239462,-0.041263,0.034548
1880,-0.308742,-0.411005,0.09032
1881,-0.31872,-0.638769,0.155231
1882,-0.247802,-0.888136,0.143044
1883,-0.219836,-1.042285,0.045455
1884,-0.064837,-1.110768,-0.064059
1885,0.032586,-1.056144,0.001112
1886,-0.005603,-0.925581,-0.057192
1887,-0.102798,-0.542279,0.043452
1888,-0.309163,-0.054806,-0.044595
1889,-0.254405,0.530392,-0.215169
1890,-0.356127,0.293607,0.309119
1891,-0.432297,0.774113,0.342369
1892,-0.374626,0.701036,0.33419
1893,-0.29062,0.534033,-0.011326
1894,0.514224,-0.15272,0.141205
1895,0.426325,0.311946,0.119831
1896,0.327414,0.492743,0.074975
1897,0.13155,0.755427,0.011176
1898,-0.039234,0.810343,-0.067069
1899,0.029419,0.571106,-0.003091
1900,0.190721,-0.150669,0.082523
1901,0.114088,-0.093057,0.195109
1902,0.093001,-0.07258,0.104748
1903,-0.22697,-0.329646,0.105921
1904,-0.213968,-0.208192,0.096489
1905,-0.066945,-0.115149,0.22456
1906,-0.095929,-0.490494,0.009218
1907,-0.079623,-0.654214,-0.073819
1908,-0.102309,-0.669898,-0.057185
1909,-0.058766,-0.589323,-0.007026
1910,-0.013394,-0.474344,-0.153389
1911,0.020895,-0.2377,-0.18176
1912,0.116243,0.022816,-0.171703
1913,0.162823,-0.018089,-0.298008
1914,0.233131,0.001479,-0.319992
1915,0.233974,0.257078,0.134857
1916,0.14191,0.422647,0.158334
1917,0.254582,0.316784,0.190802
1918,-0.089279,0.480041,0.327871
1919,-0.220744,0.719427,0.070701
1920,-0.332578,0.788546,-0.019626
1921,-0.118785,0.372094,-0.187522
1922,0.142953,0.293302,-0.111217
1923,0.195535,0.238592,-0.124426
1924,0.102051,0.241913,-0.085406
1925,-0.139347,0.114906,-0.014263
1926,-0.192976,0.063741,0.039306
1927,0.049957,-0.037107,0.09721
1928,-0.008076,-0.359863,0.014957
1929,0.00682,-0.361873,0.014307
1930,-0.116946,-0.422146,0.146317
1931,-0.222894,-0.380612,0.17084
1932,0.026724,-0.106519,0.128098
1933,0.005601,-0.252118,-0.081942
1934,0.121778,-0.245007,-0.02024
1935,-0.141271,-0.442864,-0.041399
1936,-0.626921,-0.498604,-0.801834
1937,-0.109377,0.065302,-0.172962
1938,-0.06572,-0.000498,-0.17595
1939,-0.245152,0.270331,-0.091703
1940,-0.005325,0.489129,-0.117511
1941,0.360847,0.318648,0.059215
1942,0.385625,-0.013134,-0.014085
1943,0.180368,-0.244077,0.21364
1944,-0.032653,-0.197136,0.335055
1945,-0.031405,0.232492,0.30435
1946,0.141442,0.562574,0.301027
1947,0.191561,0.285558,0.123424
1948,0.083674,0.015963,-0.017725
1949,-0.013496,-0.072343,0.032918
1950,-0.022273,-0.10687,0.135735
1951,0.042121,-0.273626,0.339659
