,userAcceleration.x,userAcceleration.y,userAcceleration.z
0,-0.057073,-1.331548,1.043565
1,-2.084728,0.163035,0.260617
2,-0.162953,3.027304,1.568902
3,0.443488,2.854327,0.999442
4,0.902134,0.824633,0.68527
5,0.429267,2.008241,-0.810188
6,0.872706,1.661019,-0.400596
7,0.114645,1.326538,-0.490427
8,-0.119993,0.491821,-0.992177
9,-0.553172,-0.13677,-1.31809
10,1.064755,-1.020719,0.017251
11,1.584186,-1.244948,-0.141251
12,1.236841,-1.173881,-0.911072
13,-0.16902,-0.493689,-1.448283
14,-0.412181,-0.476312,-0.451387
15,-0.224527,-0.408611,-0.155191
16,-0.26567,-0.305099,-0.347972
17,-0.023961,0.850656,0.732235
18,0.084157,1.87879,-0.520497
19,-0.352319,3.021943,0.528177
20,-3.809901,3.256683,0.035613
21,0.208366,1.895264,-1.044649
22,1.719262,1.306726,-0.767485
23,1.271455,0.671363,0.134356
24,0.555083,-0.239052,1.379426
25,-0.788061,-1.723557,1.7264
26,-1.328585,-2.542436,2.174877
27,-0.998975,-2.121819,2.572773
28,-0.303735,-1.562779,1.877813
29,0.384473,-1.01728,0.455456
30,0.462963,-0.519095,-0.651504
31,0.908147,0.492491,-0.434252
32,0.67628,-0.170184,-0.177544
33,0.326564,-1.263251,1.309542
34,-2.742248,0.192402,0.490768
35,-1.108474,1.768468,-1.670207
36,-0.383562,1.792178,-0.145548
37,0.390719,0.682962,1.09159
38,0.14078,1.367193,0.101094
39,0.255258,2.053333,-0.315366
40,-0.47619,1.820551,-0.604921
41,-0.336825,1.16146,-1.020999
42,-0.895434,-0.13065,-1.431065
43,0.338505,-0.624434,-0.526375
44,1.454746,-0.997185,-0.495186
45,1.762686,-0.917593,-0.668661
46,0.636879,-0.919449,-0.453426
47,-0.047492,-0.614137,-1.502621
48,-0.169739,-0.618157,-0.97464
49,0.040996,-0.520422,-0.341262
50,-0.075175,-0.494055,-0.670336
51,-0.218842,0.516505,0.782716
52,-0.586967,1.671781,-0.043374
53,-1.113983,2.372927,-0.578486
54,-2.283015,3.442837,0.511901
55,0.099042,1.803717,-1.213704
56,1.690642,0.935682,-0.025383
57,1.987361,0.331363,0.584864
58,0.559559,-1.360352,0.934542
59,-0.546462,-1.633306,1.493965
60,-0.802467,-1.564855,2.448689
61,-0.387157,-1.465759,2.672485
62,0.024784,-1.519818,1.369326
63,0.359504,-1.431057,0.820194
64,0.527103,-1.133412,0.30675
65,0.766119,0.055685,-0.448266
66,0.617547,1.353063,-0.472922
67,0.165186,0.717298,-1.0199
68,-0.602916,1.683403,2.742825
69,-1.106476,-0.907272,1.114557
70,-0.730348,-1.181649,-0.659628
71,0.133235,0.572165,1.341727
72,-0.732016,2.066592,0.44831
73,-0.248985,3.252433,-0.241454
74,0.297567,3.612877,-1.298911
75,-0.112023,0.60754,-1.19082
76,-1.143366,-0.887922,-1.421539
77,-0.248521,-1.320926,-0.264305
78,1.285086,-0.867068,-0.001302
79,1.614855,-0.556231,-0.791237
80,0.532211,-0.462635,-1.224443
81,-0.264746,-1.091908,-1.203833
82,0.027325,-0.923151,0.408201
83,0.090398,-0.526151,-0.491485
84,0.074338,-0.184364,0.220348
85,-0.2106,1.624273,0.312225
86,-0.338658,1.952996,-0.099369
87,-1.027021,3.410266,-0.282278
88,-1.757376,1.873777,-0.765337
89,-0.441499,1.676046,-1.136544
90,0.881186,1.30509,-0.844966
91,1.437993,-0.182866,0.708124
92,0.998613,-1.368395,1.275326
93,-0.790008,-1.715091,2.052846
94,-0.746373,-1.823799,3.019469
95,-0.103816,-1.651688,3.03467
96,0.272853,-1.615771,1.428401
97,0.258893,-1.093724,0.572138
98,0.25485,-0.705276,0.033892
99,0.647831,0.786802,-1.402193
100,0.473391,1.187361,-0.372465
101,-1.424577,0.457365,3.437841
102,-0.431473,-0.627778,-0.099532
103,-0.211681,-0.218877,0.734885
104,-0.210211,0.47687,0.440257
105,-0.150385,2.762423,1.077991
106,0.042246,4.162061,-1.12976
107,-0.491814,1.876681,-1.035093
108,-0.997579,-0.116979,-1.570951
109,-0.640341,-0.950106,-0.288651
110,0.905271,-1.01076,-0.565316
111,1.345446,-0.289886,-1.163544
112,0.356183,-0.983028,-0.891339
113,-0.191491,-1.149032,-0.696842
114,0.073609,-0.975482,0.503685
115,0.00737,-0.451213,-0.532911
116,-0.011816,-0.236338,-0.059727
117,-0.267226,1.043459,0.253436
118,-0.859773,2.38634,-0.085052
119,-2.553083,3.89278,-0.037084
120,-1.105307,2.592426,0.190183
121,0.332852,0.766277,-1.176014
122,0.857773,0.818422,-0.611314
123,1.38669,0.265279,0.770772
124,0.962521,-0.975905,1.261752
125,-0.331917,-1.034969,1.987551
126,-1.031492,-2.265253,3.098382
127,0.415845,-1.515655,1.848085
128,0.568542,-0.831114,0.860964
129,0.57216,-0.846347,0.521731
130,0.410385,0.472148,-1.280513
131,0.275739,1.511824,-1.309008
132,1.026478,-0.364454,-0.449395
133,-0.238081,0.524196,3.054357
134,-2.179917,1.36468,2.485601
135,-0.254534,-0.486432,-1.299771
136,0.259306,-0.003139,0.70654
137,-0.161782,0.405204,0.723776
138,-0.514183,2.275538,0.522053
139,-0.684579,3.993549,-0.957831
140,-0.226415,2.36255,-1.275413
141,-0.635238,-0.968046,-0.401425
142,0.020045,-1.460476,0.211305
143,0.412452,-1.783404,-0.760415
144,0.852814,-0.356775,-1.099634
145,0.199854,-0.951774,-0.681435
146,0.010792,-1.131392,-0.968128
147,0.386173,-0.851061,-0.10524
148,0.595578,-0.533972,-0.166206
149,0.371103,-0.242763,-0.548918
150,0.237619,-0.28658,-0.18698
151,-0.112561,0.601437,0.278648
152,-0.787827,3.273315,0.440394
153,-2.497169,4.289862,-0.647953
154,-1.798059,2.124901,0.045037
155,0.530827,1.481133,-1.746604
156,1.161449,1.012706,0.088533
157,2.050249,0.171506,1.348953
158,0.035849,-1.745521,1.507435
159,-0.8722,-2.406481,2.498007
160,0.201425,-2.544017,2.900245
161,0.595423,-1.24041,1.705886
162,0.74815,-1.287716,0.765959
163,0.484732,-0.691005,0.196739
164,0.057129,0.390325,-1.350613
165,-0.546841,2.236287,-1.594757
166,0.789484,0.016788,0.083077
167,0.178584,-1.830226,3.141595
168,-2.521025,2.324911,-3.536475
169,1.037201,0.625057,1.221728
170,-0.165316,0.7162,0.509059
171,-0.148747,1.101346,0.778635
172,-0.778137,2.806755,-0.255531
173,-0.583021,4.023764,-1.515816
174,-1.3325,0.190228,-1.82658
175,-1.006021,-0.745769,-0.526062
176,0.41824,-1.223062,-0.273875
177,1.059345,-1.143553,-0.55989
178,0.507151,-0.601087,-0.847648
179,-0.220228,-0.779139,-0.955845
180,-0.378423,-0.924486,-0.891412
181,0.130914,-0.709152,-0.114007
182,0.163121,-0.47066,-0.493495
183,-0.080705,-0.386573,-0.168166
184,-0.214261,0.364222,0.161049
185,-0.351038,3.680234,0.606249
186,-1.138077,5.267696,0.670284
187,-1.765914,2.272619,-0.844382
188,-0.488987,1.223328,-0.987495
189,1.026929,1.462522,-0.389966
190,2.050694,-0.488047,1.009922
191,0.079566,-1.54442,1.407887
192,-0.612531,-2.490757,2.709802
193,0.155751,-2.290782,2.616615
194,0.479549,-1.792357,1.499878
195,0.913502,-1.194024,0.62789
196,0.489757,-0.561371,0.067314
197,0.042843,0.475731,-1.367095
198,-0.329332,1.930319,-1.280516
199,0.940146,-0.881829,-0.195012
200,0.612989,-1.838351,0.351475
201,-2.700871,1.568083,3.461311
202,2.029939,3.156506,3.726063
203,0.024478,0.808503,-0.56681
204,0.579688,0.069764,1.562249
205,-0.42662,1.693456,-0.09456
206,-1.440475,3.604742,0.637829
207,0.326335,2.234656,-0.865111
208,-1.416198,-0.358336,-2.108786
209,-1.29739,-1.132607,-0.824312
210,0.207008,-1.139083,0.195503
211,0.90171,-1.162989,-1.156434
212,0.618205,-0.66351,-0.759914
213,0.033186,-0.643293,-0.831973
214,-0.229798,-0.784994,-0.7635
215,0.249677,-0.800534,-0.010078
216,0.229969,-0.490323,-0.474953
217,-0.137347,-0.540074,-0.229096
218,-0.231838,-0.27855,-0.097392
219,-0.287129,1.82154,0.648339
220,-0.798738,3.366595,0.848364
221,-1.963052,3.307313,-0.127408
222,-0.322844,1.980857,-0.042612
223,0.573983,1.420975,-1.39288
224,0.925267,0.761766,-0.132414
225,1.57133,-0.425095,0.811393
226,-0.251614,-1.548577,1.753552
227,-0.13727,-2.297203,2.246058
228,0.083544,-2.001211,2.273271
229,0.407453,-1.465437,1.535324
230,0.540906,-1.318136,1.048496
231,0.485617,-0.426107,0.071794
232,-0.083716,0.736643,-1.242201
233,-0.361158,1.749644,-2.143643
234,0.903471,-1.106916,0.33794
235,-0.057926,-0.088691,3.133777
236,-1.140748,1.601154,1.954334
237,0.47085,0.553638,0.701305
238,-0.013637,0.597781,0.734527
239,-0.006281,1.542781,1.148819
240,-0.544021,2.176749,-0.027927
241,0.152032,3.417636,-0.182795
242,-0.246117,0.243471,-1.303765
243,-1.219761,-0.427372,-1.541825
244,-0.220741,-1.063178,0.570401
245,0.581985,-1.019498,0.094907
246,0.63333,-0.243402,-1.481167
247,0.030317,-0.487366,-1.094432
248,-0.460677,-0.966725,-0.696176
249,-0.417666,-0.991596,-0.543046
250,0.412186,-0.681742,-0.056759
251,0.524932,-0.537366,-0.202345
252,0.379668,-0.475193,0.11357
253,0.242536,1.72013,0.435314
254,-0.156188,2.730658,0.570148
255,-2.515684,3.38506,0.292747
256,-1.24844,2.14943,-0.033025
257,0.379957,1.181921,-1.112691
258,1.315267,1.260582,-0.480532
259,1.388897,0.012961,0.808393
260,0.275343,-1.004346,1.151528
261,0.055333,-1.742676,1.898142
262,0.129012,-2.174893,2.013647
263,0.161826,-1.953199,1.696245
264,0.588778,-1.74802,0.9195
265,0.480115,-1.152877,0.430892
266,0.407958,-0.183214,-0.539934
267,-0.092158,1.79731,-2.236247
268,0.19315,0.219965,-0.448302
269,0.287061,-1.223355,1.252414
270,-0.669448,0.67026,-0.715109
271,0.452411,-0.097665,0.726972
272,-0.338687,0.50861,0.054503
273,0.069022,1.127104,1.089223
274,-0.640963,1.982824,-0.028632
275,-0.561739,2.979683,-0.514393
276,-0.218785,3.231884,-0.565272
277,-0.870492,-0.160458,-1.242886
278,-1.240537,-1.26967,-1.053945
279,0.141151,-1.214476,0.706836
280,0.713044,-0.874824,-1.531637
281,0.652194,-0.446406,-1.349789
282,0.012382,-0.667781,-0.654445
283,-0.184883,-0.851775,-0.57004
284,-0.046194,-0.89715,-0.352148
285,0.395182,-0.70974,-0.096209
286,0.08218,-0.844956,-0.149301
287,-0.080271,-0.406915,0.044399
288,0.132061,1.830467,0.399642
289,-0.008017,3.12195,0.509017
290,-0.999355,3.988511,0.542892
291,-1.728304,2.470516,-0.661641
292,-0.145716,0.812576,-1.071199
293,0.867871,0.857242,-0.473901
294,1.354596,0.069874,0.084331
295,0.483418,-0.598949,0.850172
296,-0.297151,-1.424578,1.722193
297,-0.065604,-2.722339,2.07198
298,0.489197,-2.343243,2.243993
299,0.795448,-1.528918,1.260507
300,0.687104,-0.570497,0.326525
301,0.22251,0.085649,-0.575445
302,-0.466918,1.708461,-2.354844
303,-0.075775,0.098773,-1.070121
304,0.290755,-1.477521,1.00402
305,-0.176748,0.938796,4.6276
306,-0.00203,2.180315,-2.238819
307,0.823804,0.903064,1.095753
308,-0.171712,-0.431599,0.14585
309,0.121938,1.026049,0.76665
310,-0.357106,2.880261,-0.932424
311,0.89855,3.320437,-0.600019
312,0.062539,0.594024,-1.135702
313,-1.491456,-1.250918,-0.760318
314,-1.041119,-1.183633,0.06484
315,0.020359,-1.179102,0.565419
316,0.296685,-0.493829,-1.186725
317,-0.052483,-0.678184,-0.657606
318,-0.40469,-0.965072,-0.702554
319,-0.02361,-0.821911,-0.378584
320,0.501554,-0.581044,-0.243891
321,0.428298,-0.62268,-0.259181
322,0.287928,-0.604971,-0.153933
323,0.381657,1.232796,0.299266
324,0.511566,1.998278,0.54238
325,-1.956755,3.095933,0.923178
326,-2.5024,2.712136,-0.145677
327,-0.658239,1.727489,0.310808
328,0.995305,1.589401,-1.420335
329,0.794716,0.831501,0.115544
330,0.650716,-0.295539,0.544032
331,-0.114321,-1.422314,0.927522
332,-0.03483,-2.212363,1.319112
333,0.377711,-2.53344,1.823155
334,0.543422,-2.088472,2.043877
335,0.826659,-1.412788,1.178319
336,0.921485,-0.421611,0.336384
337,0.439928,0.085363,-0.547909
338,-0.342266,2.34563,-1.699794
339,-0.736383,0.520791,-1.633589
340,0.309081,-1.719459,0.554383
341,0.134483,-0.48817,4.969984
342,-0.288525,2.192779,2.34464
343,1.817181,0.512906,2.919466
344,0.423521,-0.097708,-0.999745
345,0.692209,1.217131,1.124121
346,-0.530106,2.84322,-1.009891
347,0.229703,2.500484,-0.598014
348,-0.229079,0.799839,-0.882734
349,-1.361015,-0.221182,-0.694365
350,-1.124489,-1.021299,-0.308281
351,-0.021793,-1.099468,0.280341
352,0.201088,-0.884631,-0.242039
353,0.183315,-0.41414,-1.095923
354,-0.107939,-0.502807,-1.028719
355,-0.533172,-0.919967,-0.856542
356,0.041985,-0.986301,-0.342269
357,0.350119,-0.987079,0.019839
358,0.440264,-0.285946,-0.463086
359,0.330411,0.067608,0.155136
360,0.503604,1.945846,0.672105
361,-0.590919,3.067149,1.284118
362,-2.442261,1.718494,0.644567
363,-1.087169,1.891953,-0.556988
364,0.779796,1.533551,-0.944626
365,1.201434,1.331053,-0.988805
366,0.624335,0.909643,0.220508
367,0.009019,-0.866782,0.75815
368,0.115255,-1.864352,1.158446
369,0.31781,-2.459587,1.385987
370,0.194523,-2.21857,1.912128
371,0.570791,-1.609692,1.361724
372,0.893757,-1.4095,0.877047
373,0.5611,-0.374174,-0.113532
374,-0.149751,0.216487,-1.316269
375,-0.486324,1.629697,-2.216824
376,-0.211737,0.547821,-0.358295
377,-0.085637,1.100637,1.597234
378,0.656645,-1.809143,2.568662
379,-0.279354,-0.859995,0.471218
380,0.855579,0.403006,1.743069
381,0.784127,1.447581,0.602314
382,0.215213,3.280818,-0.216323
383,-0.106462,2.78314,-0.915385
384,-0.146385,0.503228,-0.566705
385,-1.507416,-0.5909,-0.610813
386,-1.49574,-1.191719,-0.429459
387,-0.073107,-1.111815,0.223423
388,0.492615,-0.756909,0.395131
389,0.484168,-0.608746,-0.851591
390,-0.090448,-0.441668,-0.929811
391,-0.7942,-0.704571,-1.11867
392,-0.176452,-0.786373,-0.762324
393,0.513514,-0.818503,-0.053446
394,0.786658,-0.490175,-0.393101
395,0.663035,-0.091819,0.11531
396,1.196332,1.937517,0.613708
397,0.080851,3.414199,1.294659
398,-2.668828,1.546821,1.566191
399,-1.847261,2.032085,-1.218907
400,-0.064487,1.325938,-0.269377
401,1.241021,1.629916,-0.495658
402,0.607583,1.302318,0.006272
403,0.049298,0.234014,1.134802
404,0.135656,-0.599308,0.994811
405,0.222893,-1.55094,1.15666
406,0.361896,-2.710612,1.149438
407,0.180054,-2.541953,1.528559
408,0.27481,-2.176562,1.694467
409,0.782056,-0.822519,0.825859
410,0.320044,-0.339736,-0.61323
411,0.160512,1.426053,-2.482545
412,0.316646,-0.024718,0.205897
413,0.280878,1.074034,3.137831
414,-1.020115,0.093401,2.027737
415,0.978082,0.173079,-0.006592
416,1.176639,-0.344297,1.000765
417,-0.085007,1.03134,-0.160842
418,-0.402536,1.111524,0.157222
419,-0.369178,1.548126,-0.400582
420,-0.057619,1.210952,-0.445878
421,0.087401,0.346133,-0.816236
422,-0.389465,-0.232805,-0.570069
423,-0.805412,-0.662292,0.046211
424,-0.330414,-0.644732,0.270532
425,0.439719,-1.005143,0.557339
426,0.565439,-1.014246,0.282705
427,0.587816,-0.925206,0.254387
428,0.265372,-0.614449,0.122488
429,0.117881,-0.145043,0.264986
430,0.372942,1.085337,0.470658
431,0.687362,1.597072,0.45317
432,-0.558357,2.100375,0.179892
433,-1.09474,1.563192,0.158378
434,0.013169,0.821671,-0.041867
435,0.555566,0.804686,0.4729
436,0.354787,0.756579,-0.018537
437,0.32133,0.775078,0.366609
438,0.018706,0.381592,0.818694
439,-0.242682,-0.773192,1.056457
440,0.015735,-1.861864,1.04315
441,0.414689,-1.919377,1.692895
442,0.388953,-1.539064,1.068864
443,0.204336,-1.15998,0.34605
444,-0.016278,-0.609899,-0.415756
445,-0.113283,-0.23923,-1.411573
446,0.284515,-0.353379,-0.309991
447,0.210675,2.112297,0.682037
448,-0.577896,1.602085,-0.066109
449,1.104738,-0.459694,1.568879
450,1.137406,-0.193464,-0.048304
451,0.224056,0.731894,-0.605896
452,-0.129987,0.829186,-0.704294
453,-0.0411,0.992095,-0.60799
454,0.434679,0.698748,-0.264298
455,0.162995,0.061086,-0.073929
456,-0.377237,-0.433862,0.772453
457,-0.393318,-0.168716,0.815259
458,0.305845,-0.020622,0.617494
459,0.880234,0.299813,0.677912
460,0.985725,0.685617,0.359412
461,0.641361,1.188874,0.026681
462,0.375772,1.299617,-0.112278
463,0.239146,0.819322,-0.383622
464,0.422356,0.535881,0.154551
465,0.369256,0.194603,0.55212
466,0.483639,0.124525,0.198608
467,0.509053,0.055957,0.173783
468,0.4812,-0.039207,0.232234
469,0.48063,-0.55226,0.35483
470,0.589871,-0.784081,0.242338
471,0.673402,-0.651815,0.15593
472,0.598477,-0.434766,0.267365
473,0.412092,-0.228105,0.299039
474,0.215671,0.066192,-0.418274
475,-0.002701,0.312672,-0.738349
476,0.34528,-0.445573,-0.061858
477,0.025728,0.064029,1.792667
478,0.598998,0.899235,0.570906
479,1.641551,2.293172,-0.941256
480,1.462172,0.950726,0.539049
481,0.297656,0.741036,-0.365033
482,-0.309353,0.995118,-0.606407
483,-0.049343,0.6732,-0.344725
484,0.098978,0.308201,-0.59796
485,0.262786,0.042755,-0.609855
486,0.316986,-0.029491,-0.581098
487,0.048013,-0.210223,-0.681422
488,-0.2194,-0.389802,-0.935064
489,0.101881,-0.596708,-0.552242
490,0.508966,-0.766859,-0.181551
491,0.709574,-0.444332,-0.532744
492,0.556354,-0.071009,-0.203387
493,0.363757,0.397417,-0.371605
494,0.373519,1.112051,0.102934
495,0.454539,1.261215,0.274542
496,0.7133,1.313427,0.444625
497,0.692167,1.693038,-0.416869
498,-0.018462,1.998747,-1.232562
499,-0.060473,1.475076,-0.767479
500,0.279965,1.282842,-0.474559
501,0.591963,0.957289,-0.368418
502,0.494125,-0.166641,0.035049
503,0.721133,-0.739934,0.322939
504,0.522409,-1.156738,0.461997
505,0.310633,-1.719431,0.540139
506,0.264311,-1.862942,0.468723
507,0.478294,-1.270339,0.338858
508,0.411127,-1.147705,0.028535
509,0.335095,-1.104547,-0.080781
510,0.260424,-1.146961,-0.753879
511,0.682677,-0.464899,0.57618
512,0.230489,0.124526,1.096768
513,0.312528,0.895051,0.522067
514,0.173007,2.464856,0.345721
515,0.188868,1.445948,0.209542
516,0.228886,1.175723,-0.405527
517,0.318666,1.498091,-0.607868
518,0.407819,1.752331,-0.503273
519,0.101444,0.603423,-0.716549
520,-0.154898,0.404886,-0.883992
521,-0.690344,-0.232204,-1.129398
522,-0.980449,-0.596153,-1.178711
523,-0.128511,-0.496493,-1.154333
524,0.909415,-0.655828,-0.702273
525,0.909213,-0.82937,-1.162116
526,0.311796,-0.604374,-1.160244
527,-0.929833,-0.697419,-0.563312
528,-0.705501,-0.561675,-0.151483
529,-0.395005,-0.345729,0.118534
530,-0.196984,2.115901,-0.196268
531,0.362175,2.963774,-0.203006
532,1.135619,3.661972,0.531739
533,0.327545,1.864711,-0.82336
534,0.071015,0.900782,-1.009621
535,0.740175,1.083305,-0.551301
536,1.053172,0.361278,0.029844
537,0.260691,-0.838288,0.295849
538,-0.134488,-1.982634,0.739336
539,0.033701,-2.204148,1.454122
540,0.286026,-1.754138,1.654656
541,0.231757,-1.573099,1.254485
542,0.106196,-1.111771,0.708027
543,-0.074612,-0.337282,-0.088558
544,0.024299,-0.12171,-0.895062
545,0.276716,-1.166067,-0.431822
546,0.285926,-1.47208,-0.037467
547,0.261609,0.62175,1.397341
548,0.506295,2.30659,0.504766
549,1.080351,1.779775,2.410764
550,-0.160214,0.447908,-0.487294
551,0.013241,1.452205,0.416175
552,-0.353185,1.76599,-0.497106
553,0.466958,1.705168,-0.497165
554,-0.095095,0.607188,-0.965095
555,-0.178312,0.334159,-1.319034
556,-0.769151,-0.106016,-1.238934
557,-0.725021,-0.806182,-1.282052
558,0.525961,-0.578194,0.069151
559,0.91131,-0.486809,-1.546335
560,0.595816,-0.693597,-0.948538
561,-0.284933,-0.774499,-0.60695
562,-0.927661,-0.638009,-0.745515
563,-0.836191,-0.751555,-0.033081
564,-0.345421,-0.263587,-0.56898
565,-0.016075,0.952464,0.03669
566,0.270144,3.085696,-0.016916
567,0.534404,4.688299,0.238356
568,-0.476404,1.921005,-0.873164
569,-0.189166,0.588552,-0.784632
570,0.905489,0.448127,-0.624467
571,1.731296,0.195494,-0.183685
572,0.234883,-0.762603,0.464689
573,-0.548565,-1.595914,1.068038
574,0.188099,-1.683363,1.603997
575,0.880792,-1.497977,1.856253
576,0.106321,-1.711612,1.490022
577,-0.181038,-1.358455,0.665074
578,-0.034405,-0.702245,-0.31324
579,-0.079753,0.26887,-1.120041
580,0.043039,0.30906,-0.727283
581,0.370422,-1.653755,0.619724
582,0.022826,-0.884908,1.877114
583,-0.550547,1.529569,0.675945
584,0.916088,1.853187,2.582013
585,-0.368967,0.554301,-1.410747
586,0.648239,1.242579,1.345885
587,0.416815,1.600851,-0.465718
588,-0.414791,2.018703,-0.245581
589,0.272418,0.988256,-1.265718
590,0.153814,0.562491,-1.684529
591,-1.022088,-0.407515,-1.005842
592,-0.305306,-0.861351,-0.140721
593,0.756165,-0.449987,-0.989663
594,0.905725,-0.547023,-1.483442
595,0.28228,-1.007346,-0.425184
596,-0.383715,-0.858319,-1.033118
597,-0.554086,-0.713823,-0.550492
598,-0.387313,-0.485138,-0.203958
599,-0.056852,0.369293,0.100559
600,-0.026424,0.987157,0.542435
601,-0.101275,1.967571,0.450873
602,-0.565385,3.335528,0.621861
603,-0.797676,2.82252,-0.280966
604,0.274036,1.802232,-1.234744
605,0.816219,0.583697,0.027124
606,1.390161,-0.418872,-0.129557
607,0.284885,-1.440015,0.288564
608,0.12674,-1.417227,0.894984
609,0.145249,-1.468559,1.487906
610,0.229918,-1.279286,2.050358
611,-0.004853,-1.465197,1.675443
612,0.15713,-1.246965,0.821162
613,0.022417,-0.389423,-0.101019
614,0.328633,-0.199557,-0.937636
615,0.300745,-0.370637,-0.822275
616,0.338213,-1.297021,0.148245
617,0.069958,0.108654,2.092114
618,-0.551565,0.972231,-0.52131
619,0.279363,1.16578,1.29688
620,0.144818,0.462937,0.240367
621,0.612179,1.843946,-0.359843
622,-0.928852,2.445412,-0.216782
623,0.189431,2.482299,-1.415359
624,-0.135619,1.735322,-1.703659
625,-0.418996,0.237201,-1.01321
626,-0.365772,-0.638057,-0.406177
627,0.028888,-0.986437,-0.014126
628,0.358242,-1.074111,-0.505829
629,0.522707,-0.901175,-0.73011
630,0.056758,-0.910246,-0.694255
631,-0.494833,-0.642666,-0.825009
632,-0.239296,-0.62784,-0.130332
633,-0.160825,-0.578511,-0.092315
634,-0.234325,0.624636,0.256618
635,-0.333715,1.200039,0.574731
636,-0.380385,2.520488,0.173864
637,-0.093768,3.036243,-0.461335
638,-0.201062,1.402081,-1.241638
639,0.252326,0.151327,-0.790182
640,1.230559,0.704666,-0.380629
641,0.998861,-0.624193,0.127174
642,-0.036764,-1.471435,0.539999
643,0.06196,-1.727538,1.371985
644,0.245362,-2.000328,2.051263
645,0.637244,-1.695855,2.330524
646,0.368936,-1.070826,1.352367
647,0.294091,-0.341971,0.134922
648,-0.071821,0.30149,-0.831554
649,0.024881,0.427134,-1.487309
650,0.381723,-1.170616,-0.126057
651,0.008022,-0.703944,1.562218
652,-0.546515,1.007042,1.695838
653,0.532125,0.551445,1.336227
654,0.053919,0.784983,-0.083118
655,0.767333,1.37035,0.932975
656,-0.081571,2.484791,-0.650249
657,-0.282087,2.338962,-0.782866
658,-0.104411,1.246642,-1.293035
659,-0.227864,0.662941,-1.315708
660,-0.734539,-0.34555,-0.871731
661,-0.263571,-0.80402,-0.382907
662,0.414697,-0.700376,-0.999058
663,0.858386,-0.4021,-1.464868
664,0.5957,-0.880248,-0.828798
665,-0.031631,-0.800646,-0.755002
666,-0.524792,-0.593866,-0.632676
667,-0.518691,-0.569475,-0.21299
668,-0.203369,-0.45711,-0.3448
669,-0.196295,0.582506,0.420438
670,-0.262165,1.792864,0.407421
671,-0.747955,3.214127,0.522761
672,-0.460415,3.364934,-0.585452
673,0.123774,1.494301,-1.581172
674,0.444275,0.787272,-0.386132
675,1.47369,0.229757,-0.106658
676,0.826504,-0.787298,0.411456
677,0.040442,-1.518134,0.871843
678,0.228223,-1.94285,1.350479
679,0.544457,-1.463813,1.953606
680,0.19048,-1.553769,1.506224
681,0.113195,-1.651321,1.056051
682,0.305092,-0.775301,-0.144692
683,-0.177416,0.332807,-1.305064
684,-0.157967,0.615532,-1.289871
685,-0.147115,0.473983,0.111468
686,0.399181,1.168184,2.380886
687,-0.319236,-1.077505,0.607585
688,0.525057,0.336012,0.718535
689,0.795496,1.106764,0.703578
690,0.441218,1.965952,-0.273552
691,-0.571318,2.571854,-0.605402
692,0.134157,2.351732,-0.831366
693,-0.182899,0.244139,-1.280983
694,-1.352256,-0.221336,-1.254397
695,-0.822769,-1.027816,-0.283639
696,0.407498,-0.865602,0.438109
697,0.973559,-0.608487,-1.982974
698,0.312399,-0.369927,-1.101224
699,-0.183271,-0.905916,-0.782486
700,-0.11954,-0.846551,-0.846886
701,0.316312,-0.749011,-0.510412
702,0.404809,-0.521408,-0.243821
703,0.173111,-0.274786,-0.337567
704,0.287989,1.376875,0.173816
705,-0.565011,2.681364,0.712253
706,-1.773261,3.98744,0.075771
707,-1.335575,3.049951,-0.103803
708,0.66619,1.505538,-1.705078
709,0.754833,1.141189,-0.477001
710,1.121064,-0.267609,0.055779
711,0.208411,-1.362183,0.317534
712,0.208318,-1.741395,1.14818
713,0.615022,-2.178559,1.762475
714,0.341958,-1.978235,2.266643
715,0.187685,-1.99973,1.91537
716,0.327508,-0.798128,0.734249
717,0.300634,-0.164647,-0.129396
718,-0.229168,0.881203,-1.34179
719,0.018064,1.000843,-1.226876
720,0.45398,-1.315484,0.349633
721,-0.034189,-1.125052,2.039021
722,-0.661768,1.559871,0.051534
723,1.266452,1.366453,2.431565
724,-0.236825,0.377764,-1.253388
725,0.414987,1.06158,0.886609
726,-0.617424,1.340525,0.088729
727,-0.498141,2.895044,-0.426555
728,0.554777,1.701103,-0.407875
729,-0.251371,0.324191,-1.608025
730,-1.446077,-0.245785,-1.281908
731,-0.92967,-1.409219,-0.180831
732,0.649184,-0.756976,-1.474074
733,0.558857,-0.506497,-1.184013
734,0.212029,-0.548261,-0.851843
735,0.088268,-0.614855,-0.643335
736,-0.094315,-0.535796,-0.371131
737,-0.1764,-0.643409,-0.182418
738,-0.476159,-0.719797,-0.294029
739,-0.114664,0.303835,0.057724
740,-0.763395,2.139163,-0.135743
741,-0.886004,2.75001,-0.376795
742,-0.45572,3.048262,-0.381839
743,0.187848,2.36465,-0.905926
744,0.575128,1.109981,-0.931482
745,1.534072,0.367082,-0.015199
746,0.537219,-0.506226,0.517267
747,0.212729,-1.331258,1.019229
748,-0.294622,-2.335371,1.933488
749,0.711881,-3.066949,2.199348
750,0.864961,-2.041541,1.428815
751,0.063222,-0.749859,0.257054
752,-0.40488,0.756567,-1.312591
753,-0.546552,0.975099,-2.070891
754,-0.06126,-1.032943,-0.019097
755,0.552201,-1.917745,1.177296
756,0.111927,0.381262,3.480772
757,-1.089123,3.552765,-5.425494
758,1.348525,1.184787,2.220127
759,0.181019,-0.755262,-1.004496
760,0.685141,0.953202,1.061308
761,0.228783,2.114712,-0.509293
762,-0.720088,2.716007,-0.907689
763,0.05032,1.080698,-0.796522
764,-1.085059,-0.104014,-1.481667
765,-1.354939,-0.816901,-0.603104
766,0.12572,-1.075001,0.208443
767,0.622352,-0.727647,-0.759379
768,0.551038,-0.149548,-1.349533
769,-0.117205,-0.483021,-1.035254
770,-0.289364,-0.748624,-0.757301
771,-0.047618,-0.81313,-0.528791
772,0.241047,-0.419536,-0.579314
773,0.251154,-0.582244,-0.186867
774,0.205903,0.485798,0.305104
775,-0.887792,3.835061,0.807561
776,-1.529809,3.892094,1.176416
777,-1.977189,2.64864,0.223525
778,1.192259,1.879576,-2.036927
779,0.91952,1.92302,-1.570683
780,1.011602,0.719205,0.145242
781,0.25532,-1.399956,0.50941
782,0.292166,-1.926539,0.821801
783,0.138219,-2.214758,1.352947
784,0.291348,-2.071319,1.965816
785,0.288823,-1.96134,2.083886
786,0.482871,-1.173592,0.967089
787,0.431451,-0.229287,0.139364
788,-0.230544,0.669917,-0.835158
789,-0.569035,1.510679,-1.818247
790,0.211443,-1.311488,-0.68594
791,-0.069252,-0.877607,0.142694
792,0.642474,3.101073,2.205852
793,1.604581,0.476732,2.732718
794,-0.088993,-0.521734,-0.256236
795,0.601239,0.820788,0.886527
796,0.254512,2.012316,-0.401512
797,-0.562186,2.568182,-0.714259
798,-0.225997,2.076647,-1.055838
799,-1.019384,0.468011,-1.31163
800,-1.247004,-1.209825,-0.739834
801,-0.53628,-1.464838,-0.036207
802,0.607356,-0.841223,0.246466
803,0.407485,-0.355145,-0.773117
804,0.230971,-0.605079,-0.937763
805,0.021686,-0.906752,-0.892833
806,0.209031,-0.702212,-0.441397
807,0.355368,-0.644967,-0.319686
808,0.294225,-0.465103,-0.237131
809,0.148587,1.374659,0.228336
810,0.165849,1.361319,0.302807
811,-1.349144,3.509635,0.762451
812,-1.137665,2.434268,0.07387
813,-0.153483,2.57733,-0.72967
814,0.717505,1.721593,-1.49639
815,1.067377,1.012691,-0.147552
816,1.163932,-0.506686,0.303952
817,-0.289854,-1.55378,0.577277
818,-0.087742,-2.017763,1.39
819,0.647436,-2.218372,1.96834
820,0.385526,-1.736817,1.690853
821,0.373057,-0.896334,0.740473
822,0.179623,-0.595944,0.207932
823,-0.34962,0.505828,-1.252204
824,-0.045713,0.84465,-1.364498
825,-0.001395,-0.315576,-0.836604
826,0.642895,-2.086092,0.879826
827,0.48533,-1.343375,2.487274
828,-0.052994,-0.08176,3.716342
829,1.853509,2.75797,3.754505
830,1.188463,1.748271,1.186171
831,0.020908,0.451646,-0.932177
832,-1.546302,1.407505,-0.480768
833,-1.177771,1.903582,-0.543651
834,0.239394,1.017173,-0.923717
835,-0.088075,0.392581,-1.730274
836,-0.923555,-0.324615,-0.784315
837,-0.629024,-0.953787,0.019067
838,0.585667,-0.79947,-1.423512
839,0.709971,-0.522173,-0.490309
840,0.237936,-0.858149,-1.318173
841,-0.41291,-0.855772,-0.59304
842,-0.37343,-0.646502,-0.289229
843,-0.143964,-0.74278,-0.410496
844,-0.069425,-0.466449,-0.274385
845,-0.21031,1.217363,0.337366
846,-0.780955,2.354917,0.39428
847,-1.141532,2.733788,0.477653
848,-0.340443,2.136189,-0.695537
849,0.824303,1.610744,-1.521397
850,0.626037,1.277,-0.571223
851,0.830945,0.001848,0.234533
852,0.455273,-0.78958,0.391646
853,0.405282,-1.195363,0.81101
854,0.371585,-1.766724,1.213118
855,-0.006706,-2.245737,1.642601
856,0.2749,-1.960919,1.636102
857,0.628181,-1.450883,0.846832
858,0.330239,-0.608421,-0.059069
859,-0.155313,0.380086,-1.318567
860,-0.183627,0.836544,-1.697685
861,0.287464,-1.646363,0.094626
862,0.291492,-1.025812,2.266546
863,-1.596403,3.065625,-3.520615
864,2.314558,0.90191,3.353295
865,0.673484,0.36019,0.506921
866,0.313316,1.079073,0.334404
867,-0.157231,1.396766,-0.448192
868,-0.219824,2.996075,-0.688872
869,0.058816,0.47112,-1.295476
870,-1.032253,-0.24917,-1.434748
871,-0.978582,-1.285539,-0.010301
872,0.291116,-1.125338,0.046933
873,0.707312,-0.463613,-1.296027
874,0.265994,-0.229119,-1.1497
875,-0.379434,-0.777096,-0.721688
876,-0.384383,-0.776139,-0.757067
877,0.110207,-0.719955,-0.376304
878,0.213535,-0.707302,-0.257787
879,0.04134,-0.355088,-0.165416
880,0.177469,1.648032,0.423134
881,-0.069914,2.554602,0.551757
882,-1.744224,4.653175,0.504148
883,-0.033764,1.871158,-0.461033
884,1.029259,1.964999,-1.062599
885,1.072373,1.969697,-1.128197
886,0.875621,-0.067393,0.496393
887,0.221257,-1.18222,0.683348
888,0.051677,-1.544075,1.048881
889,0.366573,-2.285383,1.590826
890,0.09119,-1.92236,1.951705
891,0.055442,-1.831366,1.71485
892,0.23323,-1.302417,0.513245
893,0.118646,-0.270013,-0.605721
894,-0.262327,1.374554,-2.025926
895,-0.160018,0.473661,-0.726993
896,0.400131,-2.386099,0.650807
897,0.105987,-1.040839,2.440042
898,-0.648518,2.428392,-1.638229
899,0.94382,2.593162,-0.704135
900,0.129329,0.616465,-0.760865
901,0.101613,1.073891,1.399813
902,-1.425481,1.627811,-0.590179
903,0.04286,2.59271,-0.282904
904,0.510678,1.143744,-0.786771
905,-0.597207,-0.106426,-1.68728
906,-1.009329,-0.536182,-0.749051
907,-0.075627,-1.131033,0.266573
908,0.648878,-0.717648,-1.45874
909,0.444537,-0.350927,-1.076935
910,0.079191,-0.91589,-0.660666
911,-0.295125,-0.929711,-0.552025
912,-0.268298,-0.788879,-0.41942
913,-0.159173,-0.540239,-0.282541
914,-0.216743,-0.729115,-0.180547
915,0.049134,0.354685,0.197964
916,-0.283788,2.150982,0.577496
917,-1.01383,2.826008,0.576171
918,-1.652758,2.681598,0.694448
919,0.154448,1.81517,-0.618102
920,1.176786,1.354679,-1.775993
921,1.085672,1.565263,-1.223862
922,0.730473,0.059584,0.575735
923,0.002634,-1.214417,0.72369
924,0.082235,-1.954221,1.013697
925,0.345788,-2.199838,1.205102
926,0.222409,-1.993627,1.650046
927,0.180503,-1.520809,1.010116
928,0.368298,-0.794351,0.214077
929,0.18221,-0.461687,-0.152799
930,-0.303012,0.974301,-1.804176
931,0.055384,-0.722006,-0.349534
932,-0.14572,-1.978759,0.370824
933,-0.315176,1.224392,2.214694
934,0.971732,3.137453,-0.554571
935,0.905148,0.812476,1.337659
936,0.150955,0.010537,0.476619
937,0.137669,0.872893,1.58181
938,-0.769875,2.606066,-0.937782
939,-0.764941,2.602692,-1.057066
940,0.194505,0.375894,-0.983975
941,-1.642042,-0.512991,-1.447296
942,-1.192562,-1.418128,-0.578576
943,0.209923,-0.92527,0.286718
944,0.56488,-0.623719,-0.014689
945,0.584086,-0.359414,-1.746785
946,-0.123067,-0.484449,-0.904491
947,-0.594595,-0.907197,-0.846121
948,-0.172667,-0.934189,-0.342514
949,0.101261,-0.703343,-0.304595
950,0.000206,-0.39926,-0.472741
951,0.195855,0.207131,0.158039
952,0.087545,1.881045,0.470323
953,-0.855156,3.225218,0.557238
954,-1.392119,1.907429,-0.074393
955,0.103453,1.534636,-0.610989
956,0.972979,1.365643,-1.542874
957,0.905817,1.527232,-0.648112
958,0.757356,0.488305,0.186329
959,0.214467,-0.935905,0.580709
960,0.013579,-1.798199,0.86735
961,0.334195,-2.778765,1.183569
962,0.403326,-2.187727,1.86044
963,0.346279,-1.582485,1.473205
964,0.48584,-0.845306,0.501362
965,0.178863,0.00406,-0.390328
966,-0.505094,1.176312,-1.461457
967,-0.530537,0.952403,-2.323056
968,0.566195,-1.812774,0.956987
969,0.217446,-3.376496,1.334231
970,-1.181389,4.686466,-4.030287
971,0.693813,5.276639,0.291626
972,2.71711,2.116679,3.536886
973,0.066635,0.235455,1.365448
974,-0.233906,0.705967,0.883134
975,-1.202057,2.199524,-1.091554
976,1.080157,1.503912,-0.888831
977,-0.271626,0.048987,-1.247455
978,-1.465047,-0.810648,-0.601995
979,-0.692877,-1.09298,0.181668
980,0.238246,-0.910724,0.093566
981,0.385286,-0.836221,-0.817135
982,-0.128299,-0.344063,-1.174251
983,-0.508195,-0.885557,-0.64667
984,-0.249108,-0.79201,-0.582106
985,0.162014,-0.799647,-0.063305
986,0.113801,-0.388864,-0.469699
987,0.276034,0.45366,0.359898
988,0.316407,2.028357,0.901023
989,-1.165676,2.583461,1.136176
990,-2.168304,1.617682,-0.43704
991,-0.539525,1.565239,-0.386831
992,1.399013,1.946164,-1.094187
993,0.837368,1.323581,-1.032366
994,0.262561,0.653622,0.080825
995,0.003575,-0.088767,0.852381
996,-0.050002,-1.169769,0.538395
997,0.103511,-1.900421,0.671304
998,0.319998,-2.711784,1.002302
999,0.207186,-2.081285,1.626499
1000,0.5633,-1.287036,1.162917
1001,0.373757,-0.230464,-0.036725
1002,-0.363766,0.606331,-1.226233
1003,-0.1152,0.676388,-1.859938
1004,-0.146414,-1.056864,-0.317528
1005,0.242007,-2.704805,1.109117
1006,0.391058,-2.479934,2.636026
1007,-0.149417,1.485803,2.122697
1008,1.616364,6.356181,2.507401
1009,0.610247,-0.234302,0.390145
1010,-0.457539,-1.040717,-1.317919
1011,-0.281881,0.564081,1.344804
1012,-0.794029,1.552098,-0.208845
1013,0.521048,2.18398,0.68441
1014,0.614217,1.25228,-0.456711
1015,-1.283521,-0.440208,-0.827132
1016,-1.200708,-1.293636,-0.302916
1017,-0.513678,-1.25511,-0.18209
1018,0.260679,-0.589577,-0.501289
1019,0.493544,-0.545722,-1.568211
1020,0.199598,-0.607039,-0.399572
1021,-0.366149,-0.68462,-0.560565
1022,-0.839145,-0.865107,-0.500678
1023,-0.472728,-0.695266,0.001133
1024,0.124185,0.715894,0.486047
1025,0.293345,2.032944,0.751249
1026,-0.092807,2.663819,1.289649
1027,-1.544991,1.85609,-0.476225
1028,-0.094586,1.297682,-0.72181
1029,0.612147,1.418228,-0.692823
1030,0.560527,1.105092,-0.225546
1031,0.462156,0.433827,0.415938
1032,0.108239,-0.265559,0.662362
1033,-0.055502,-1.180321,0.55565
1034,-0.037793,-1.897909,0.468273
1035,0.055343,-2.330663,0.651533
1036,0.032419,-1.846813,0.689614
1037,0.327399,-1.313288,0.503014
1038,0.457895,-0.907717,0.234371
1039,-0.053473,0.200886,-0.915789
1040,-0.292633,-0.691058,-0.830227
1041,-0.04494,-1.459085,0.406378
1042,-0.193066,-1.386304,0.899988
1043,-0.287135,2.005571,1.862488
1044,0.55584,2.979084,-0.184591
1045,0.611144,0.445723,0.754372
1046,-0.411853,0.211469,-0.318712
1047,-0.073305,0.789234,0.680001
1048,-0.531569,1.132177,-0.082702
1049,0.204432,1.249138,-0.181175
1050,0.271422,0.706953,0.085272
1051,-0.091878,0.162996,-0.763692
1052,-0.778962,-0.417266,-1.012047
1053,-0.839817,-0.76281,-0.643957
1054,-0.07044,-0.715665,-0.065854
1055,0.271198,-0.556474,0.116196
1056,0.245722,-0.679924,-1.190534
1057,-0.038329,-0.663115,-0.848224
1058,-0.223432,-0.789026,-0.36935
1059,-0.42763,-0.789499,-0.632487
1060,-0.056521,0.025125,0.187101
1061,0.545213,1.244841,0.500893
1062,0.757825,1.705751,0.605246
1063,-1.164991,0.825143,0.152789
1064,-0.917087,0.902161,-0.284228
1065,-0.129315,0.982304,-0.544409
1066,0.232543,1.19551,-0.536311
1067,0.231885,1.131101,-0.224928
1068,0.191626,0.852843,0.105794
1069,0.145094,-0.13485,0.419153
1070,-0.11181,-0.593673,0.354876
1071,-0.101373,-0.906224,0.254543
1072,0.058446,-1.363994,0.189881
1073,0.1598,-1.822061,0.357819
1074,0.194844,-1.883108,0.568795
1075,0.397541,-1.373651,0.556889
1076,0.342045,-0.91802,0.078778
1077,0.019492,-0.514542,-0.588767
1078,-0.062765,-0.335919,-0.640495
1079,-0.457286,-0.832939,0.022663
1080,-0.321917,0.720412,1.280989
1081,-0.693676,2.90765,-1.673406
1082,0.707645,-0.10953,1.019401
1083,0.023749,-0.420823,-0.017698
1084,1.054705,0.299336,1.081744
1085,0.298672,0.828278,-0.288696
1086,0.071279,1.394626,-0.119361
1087,-0.158625,0.887553,-0.366078
1088,-0.106743,0.377469,-0.375244
1089,-0.326536,0.157631,-0.502683
1090,-0.539244,-0.004113,-0.636471
1091,-0.676944,-0.454794,-0.499276
1092,-0.448147,-0.493819,-0.529408
1093,0.187814,-0.684399,-0.305599
1094,0.333025,-0.888484,-0.367593
1095,0.254314,-0.872011,-0.393794
1096,0.029276,-0.547005,-0.207205
1097,-0.295965,-0.728027,-0.296158
1098,-0.413874,-0.231386,-0.033111
1099,-0.591372,1.187982,0.211482
1100,-0.056359,2.033243,0.049826
1101,0.093036,2.026829,0.226272
1102,-0.634937,1.229666,-0.440779
1103,-0.323725,1.046372,-0.388648
1104,0.619444,1.553614,-1.05266
1105,0.563759,1.218445,-0.135848
1106,-0.011043,0.366519,-0.191585
1107,-0.252244,-0.358848,-0.235516
1108,0.130219,-1.13876,0.132698
1109,0.29208,-1.555916,0.480145
1110,0.356176,-1.394505,0.602931
1111,0.30962,-1.084307,0.836208
1112,0.110944,-1.136035,0.798431
1113,0.070084,-1.154216,0.588477
1114,-0.066222,-0.951217,0.252424
1115,0.086127,-0.92311,0.182549
1116,0.301891,-0.830125,0.184017
1117,0.38441,-0.649087,0.201307
1118,0.292026,-0.504425,0.226037
1119,0.182148,-0.525465,0.179558
1120,0.162691,-0.752902,0.15893
1121,-0.571744,0.004086,-0.477278
1122,-3.14819,7.02695,-4.055692
1123,2.856781,0.384201,4.778152
1124,-0.100654,-3.123388,-1.870183
1125,1.854168,0.465413,-0.353575
1126,0.517761,1.17863,-0.116475
1127,-0.006306,1.89851,0.040821
1128,-0.259604,2.214632,-0.512431
1129,-0.321223,0.506367,-0.443644
1130,-0.67108,-0.535254,-0.119848
1131,-0.85556,-0.835703,0.303919
1132,-0.595168,-1.413304,0.472864
1133,-0.147918,-1.446853,0.033595
1134,0.053565,-0.934088,0.192489
1135,-0.033414,-0.37694,0.683634
1136,-0.167429,-0.319346,0.4242
1137,-0.106607,-0.42185,0.405467
1138,0.068489,-0.239798,0.411934
1139,-0.208454,0.844071,0.506053
1140,-0.108971,1.590264,-0.062076
1141,0.151519,0.849169,-0.942763
1142,-0.015213,-0.015341,-0.013888
1143,-0.09046,-0.351094,0.105272
1144,-0.040857,-0.313214,-0.011636
1145,-0.185215,-0.213243,-0.207137
1146,-0.311094,-0.306846,-0.346335
1147,-0.222556,-0.325839,-0.417627
1148,-0.153734,0.040268,-0.334429
1149,0.181176,0.905318,-0.356628
1150,-0.206464,0.02833,-0.462889
1151,0.261335,-1.379848,-0.504879
1152,0.661877,-1.794502,0.459105
1153,0.447558,-1.491619,1.358535
1154,0.222964,0.229598,1.754081
1155,-0.805872,3.661993,-2.688169
1156,1.450119,1.421563,1.851366
1157,-0.067358,-0.274708,0.494298
1158,-0.165194,0.137833,-0.267631
1159,0.578952,0.992001,0.760991
1160,0.203937,0.827398,0.340437
1161,0.008296,0.73241,0.194276
1162,0.053927,0.362372,0.365204
1163,0.07331,0.135494,0.288351
1164,0.153566,-0.065548,0.120321
1165,0.025926,-0.363685,0.021051
1166,-0.109487,-0.458609,-0.138995
1167,-0.179925,-0.459603,-0.153023
1168,-0.066409,-0.498681,-0.125616
1169,-0.028307,-0.531412,-0.034784
1170,0.010054,-0.54329,-0.035586
1171,0.341811,-0.434426,-0.261381
1172,0.364125,-0.199357,-0.432915
1173,0.066342,0.099568,-0.241925
1174,-0.561084,0.102771,-0.221647
1175,-0.593251,0.259063,-0.75065
1176,-0.016953,-0.015909,-0.300302
1177,0.058919,-0.093166,-0.070433
