,userAcceleration.x,userAcceleration.y,userAcceleration.z
0,0.209599,-0.957067,-0.041304
1,0.314708,-0.154641,1.183923
2,0.033194,0.740677,0.824121
3,-0.538465,2.820008,0.098541
4,-0.637108,1.099376,-0.197897
5,-0.575521,0.978261,-0.012209
6,-0.158951,1.033043,-0.093096
7,0.243946,0.641593,-0.418696
8,0.107876,0.472234,-0.191844
9,0.031978,-0.039418,-0.027239
10,0.174842,-0.585438,0.11763
11,0.487653,-1.118516,0.165729
12,0.495355,-1.643193,0.131971
13,0.078153,-1.723732,-0.03158
14,-0.215998,-1.154805,0.109842
15,-0.165732,-0.822841,0.178376
16,-0.008058,-0.537785,0.154629
17,-0.16023,-0.268083,0.430748
18,-0.599757,2.244732,0.256537
19,-0.160747,3.024679,-0.36136
20,0.112684,0.217875,-0.090826
21,0.445238,0.548009,0.142058
22,0.019053,0.492479,-0.271498
23,-0.166231,0.632304,0.191156
24,0.02562,0.855246,-0.150633
25,0.35539,0.862952,-0.34007
26,0.255657,0.184979,-0.179378
27,-0.303503,-0.667909,0.037074
28,-0.213919,-0.743394,0.0163
29,-0.307147,-0.783904,-0.082564
30,-0.00539,-0.802989,-0.112352
31,0.137006,-0.806322,-0.075975
32,0.323582,-0.908704,-0.123537
33,0.26558,-0.735234,0.425118
34,0.168162,-0.176964,1.106431
35,-0.131526,1.566383,0.063197
36,-0.869859,2.04807,0.169494
37,-0.998285,1.148102,0.149522
38,-0.66433,1.243406,0.062221
39,0.11172,1.10381,-0.349803
40,0.280647,0.901962,-0.336503
41,0.108981,0.249613,0.00331
42,0.159867,-0.544778,0.147084
43,0.424457,-1.111438,0.037944
44,0.523709,-1.839848,0.101564
45,0.319664,-1.785629,0.17485
46,-0.206566,-1.285832,0.224597
47,-0.462738,-0.97164,0.101103
48,-0.162777,-0.659887,0.036466
49,-0.042324,-0.341933,0.505357
50,-0.43141,0.300906,1.184599
51,-0.397544,2.304128,-0.342296
52,-0.085062,0.37124,0.206347
53,0.110408,0.51325,-0.019896
54,0.286848,0.672649,-0.124533
55,0.125659,0.566079,-0.228709
56,0.109435,0.649672,0.009983
57,0.248921,0.80437,-0.066007
58,0.159479,0.332706,-0.218904
59,-0.075889,-0.349393,-0.236427
60,-0.293497,-0.712652,-0.025382
61,-0.432076,-0.844994,0.005788
62,-0.259877,-0.728167,0.079219
63,0.037702,-0.760218,-0.063233
64,0.064794,-0.820534,-0.117205
65,0.151333,-0.940678,-0.145157
66,0.061294,-0.708698,0.346425
67,0.042237,-0.430332,1.256652
68,-0.104661,2.722011,0.094298
69,-0.605041,2.180215,-0.075052
70,-0.698185,1.132079,-0.020991
71,-0.460454,1.027261,-0.011106
72,0.289318,0.466376,-0.339374
73,0.197767,0.306623,-0.332518
74,0.170981,0.025655,0.184791
75,0.240637,-0.678209,0.226773
76,0.367323,-1.432321,0.296743
77,0.42314,-1.683523,0.324503
78,0.013095,-1.419706,-0.066392
79,-0.401583,-1.028422,-0.010086
80,-0.498141,-0.882152,-0.077216
81,0.180863,-0.71053,0.176241
82,0.212438,-0.498215,0.036239
83,-0.724411,-0.376943,1.8344
84,-0.657461,4.396074,-0.000765
85,-0.058887,0.617703,-0.190446
86,0.317951,-0.175935,-0.387471
87,0.42697,0.076114,-0.240751
88,0.015096,0.481176,0.187624
89,0.011108,0.47267,0.124819
90,0.312089,0.795262,-0.259764
91,0.254731,0.333624,-0.265143
92,0.084835,-0.000704,-0.170058
93,-0.479494,-0.836718,-0.083701
94,-0.30703,-0.792236,-0.113254
95,0.049256,-0.824723,-0.011407
96,0.19078,-0.929842,0.039515
97,0.192612,-0.967725,-0.125923
98,0.114179,-0.894832,-0.222654
99,-0.033956,-0.650793,0.255513
100,0.120697,1.152905,0.538484
101,-0.09194,3.010704,0.432917
102,-0.50471,2.1074,-0.182129
103,-0.4396,0.974939,-0.11538
104,-0.124788,0.921474,-0.030782
105,0.122397,0.604422,-0.441165
106,0.189654,0.40012,-0.157538
107,-0.056656,-0.452894,0.286658
108,0.278086,-1.107361,0.389735
109,0.540701,-1.78907,0.509587
110,0.416687,-1.806273,0.427004
111,-0.312848,-1.128913,0.011679
112,-0.338323,-0.870654,-0.116336
113,-0.055323,-0.827607,-0.039563
114,0.261103,-0.570784,0.116348
115,-0.009746,-0.460732,0.519048
116,-1.413815,0.882767,1.160614
117,0.323794,1.370418,-0.309714
118,0.436982,0.397026,-0.190388
119,0.440658,0.399541,-0.335305
120,0.21149,0.048483,0.247359
121,-0.037071,0.457917,0.311935
122,0.101257,0.50937,-0.121956
123,-0.020897,0.195145,-0.316635
124,-0.425027,-0.56611,0.405623
125,-0.513239,-0.873503,0.177301
126,-0.222529,-0.665438,-0.158597
127,-0.027764,-0.895499,0.008422
128,0.212597,-1.015062,-0.081598
129,0.059516,-0.822425,0.063205
130,-0.10687,-0.338154,0.899868
131,-0.020448,0.114134,0.600224
132,-0.722559,2.432258,-0.14246
133,-0.822409,1.286108,0.14129
134,-0.648726,1.186546,-0.029018
135,0.219306,1.05006,-0.348663
136,0.144501,0.59304,-0.28309
137,0.085263,0.437963,0.319949
138,-0.053735,-0.526039,0.515064
139,0.112111,-1.237144,0.362302
140,0.369174,-1.534131,0.120403
141,0.113721,-1.74957,-0.048088
142,-0.149335,-1.163683,0.07623
143,-0.187841,-1.022809,-0.00518
144,-0.046733,-0.803698,0.210285
145,-0.318979,-0.268603,0.590674
146,-1.001064,1.418872,0.214788
147,0.133603,1.628629,-0.197989
148,0.5439,-0.055367,-0.018009
149,0.506773,0.39753,0.147596
150,0.049256,0.5716,-0.089702
151,-0.297521,0.921905,0.136923
152,-0.204202,1.27037,-0.255267
153,0.171832,0.128292,-0.340505
154,-0.059263,-0.596279,-0.230784
155,-0.195689,-0.878712,-0.064002
156,-0.424377,-0.973137,0.256952
157,-0.340287,-0.745226,0.26043
158,-0.072581,-0.76924,0.019687
159,0.010015,-0.782972,0.072654
160,0.012989,-0.819864,0.06508
161,-0.020598,-0.704958,0.528433
162,-0.554167,0.298808,1.149507
163,-0.242717,1.357415,0.395252
164,-0.478523,2.818414,0.231969
165,-0.428932,1.236189,0.247817
166,-0.303966,1.12825,-0.255776
167,0.363967,1.105734,-0.464217
168,0.187047,0.50114,-0.03624
169,0.02896,-0.384143,0.392186
170,0.244058,-1.070563,0.244182
171,0.383784,-1.827035,0.142653
172,0.157911,-1.871996,0.060695
173,-0.364831,-1.305644,0.181824
174,-0.315057,-0.919937,-0.035141
175,0.001351,-0.640941,0.087262
176,-0.017709,0.01166,0.346461
177,-0.584046,0.072163,1.019292
178,-0.517143,1.895688,-0.233507
179,0.038857,0.591498,0.348541
180,-0.004093,0.511521,0.32103
181,0.023173,0.65847,0.117841
182,-0.183927,0.605662,-0.273864
183,-0.023819,0.997208,-0.084108
184,0.189571,1.083165,-0.11579
185,0.015155,0.32044,-0.283716
186,-0.189888,-0.466059,-0.152504
187,-0.296222,-0.81311,0.097908
188,-0.44008,-0.888666,0.17333
189,-0.180365,-0.686456,0.240562
190,0.045089,-0.72576,0.003777
191,0.054983,-0.784078,0.038661
192,0.087415,-0.87244,0.093964
193,0.062204,-0.983544,0.049459
194,-0.054593,-0.786177,0.326002
195,-0.095192,0.565415,0.473561
196,0.110844,1.563185,0.331639
197,0.053991,2.086871,0.195453
198,-0.664292,1.068749,-0.23881
199,-0.360752,1.172526,-0.268822
200,-0.014314,1.112011,-0.352872
201,0.055232,0.771761,-0.239933
202,0.143074,-0.125677,0.312245
203,-0.038842,-0.31428,0.273774
204,0.405904,-1.248091,0.267806
205,0.225877,-1.608698,0.333388
206,-0.213951,-1.234188,0.043013
207,-0.358228,-0.889681,0.231116
208,-0.372722,-0.792318,0.439094
209,-0.490317,-0.797667,0.489367
210,-0.792438,-0.017095,0.837805
211,-0.760529,0.655487,1.180598
212,0.287532,2.308547,0.248856
213,0.419238,-0.17387,-0.435631
214,0.557746,-0.118485,-0.131913
215,0.046334,0.460059,-0.157625
216,-0.037687,0.945569,0.082948
217,-0.028088,1.008585,-0.051238
218,0.077727,0.745944,-0.287567
219,0.075581,0.080517,-0.16213
220,-0.303671,-0.112926,-0.076589
221,-0.418634,-0.53689,-0.048471
222,-0.302961,-0.753846,0.139409
223,0.007635,-0.899126,0.269068
224,0.05025,-0.932874,0.248542
225,0.165672,-0.940611,0.027165
226,0.171725,-0.758216,0.407441
227,-0.391655,-0.031154,0.859386
228,-0.19662,1.394563,0.176875
229,-0.383119,2.076394,0.083466
230,-0.359868,0.850729,0.127617
231,0.18977,0.994449,-0.010103
232,0.195448,0.991172,-0.229501
233,0.169069,0.677208,-0.30545
234,0.100098,0.306224,0.11226
235,0.036491,-0.364505,0.177322
236,0.317729,-0.947881,0.077569
237,0.310323,-1.18502,-1.20E-05
238,0.020301,-1.592437,0.200453
239,-0.149769,-1.337913,0.205782
240,-0.3122,-1.130906,0.224421
241,-0.053003,-0.765404,0.286662
242,-0.067275,-0.582499,0.380695
243,-0.339736,-0.219725,0.602084
244,-0.072266,3.49847,-0.674623
245,0.471807,1.543879,0.05965
246,0.474908,0.402746,-0.173473
247,0.361051,0.474899,-0.086626
248,0.021665,0.265997,0.104962
249,-0.129714,0.398415,0.249768
250,-0.114641,0.443962,-0.216952
251,-0.098001,0.227217,-0.233101
252,-0.199822,-0.111767,-0.215071
253,-0.375441,-0.550501,-0.129841
254,-0.165544,-0.724617,0.13061
255,-0.012172,-0.851974,0.043759
256,0.136528,-0.962082,0.006747
257,0.228984,-0.979423,-0.003933
258,0.153961,-0.960368,-0.001786
259,-0.072889,-0.327395,1.130801
260,-0.287785,0.897277,0.568434
261,-0.376671,2.166289,0.2959
262,-0.653656,1.930274,0.13825
263,-0.494699,0.928565,-0.019505
264,0.124017,1.058614,-0.134831
265,0.331719,0.738286,-0.305096
266,0.269928,0.695947,-0.124459
267,-0.098104,-0.137177,0.152828
268,0.040057,-0.751988,0.179502
269,0.247071,-1.342004,0.1322
270,0.236466,-1.702417,0.062587
271,0.043866,-1.28071,0.007818
272,-0.172989,-0.947372,0.004974
273,-0.102355,-0.884669,-0.09488
274,0.1264,-0.702394,0.259245
275,-0.339392,-0.171152,1.068452
276,-0.243459,2.453657,-0.218043
277,0.252081,0.899655,0.07695
278,0.271196,0.133932,0.058306
279,0.036288,0.610303,-0.038985
280,0.12765,0.507579,-0.252313
281,0.107879,0.602347,0.151934
282,0.101221,0.958231,0.01306
283,-0.062986,0.51985,-0.095673
284,-0.279091,-0.254504,-0.051088
285,-0.536985,-0.682337,0.032444
286,-0.478101,-0.89232,0.073089
287,-0.226308,-0.703039,0.025665
288,-0.04053,-0.739373,0.052658
289,0.101671,-0.841066,0.125998
290,0.081556,-0.981646,-0.030338
291,0.019214,-0.948098,-0.203308
292,0.006827,-0.442157,0.812849
293,0.026559,0.356,1.195671
294,-0.440964,2.920676,0.066882
295,-0.362494,1.413398,0.069466
296,-0.346884,0.851761,-0.063589
297,0.034257,0.958804,-0.134072
298,0.282842,0.646091,-0.299064
299,0.044779,0.549992,-0.126166
300,-0.089941,-0.047567,0.083223
301,0.095499,-0.751042,0.168022
302,0.455497,-1.347654,0.196205
303,0.372345,-1.774481,0.168769
304,-0.14175,-1.144168,-0.030364
305,-0.37342,-0.977713,0.007571
306,-0.024032,-0.848247,0.212056
307,0.031887,-0.498925,0.527609
308,-0.55985,0.353735,1.305316
309,-0.43503,4.287401,-0.651686
310,0.271622,0.287536,-0.018572
311,0.268197,-0.058809,-0.398439
312,0.313864,0.123631,-0.092403
313,0.086611,0.15599,-0.021522
314,-0.006715,0.512649,0.078092
315,0.06958,0.996096,-0.227927
316,0.070947,0.442711,-0.258927
317,-0.083212,-0.305209,0.017908
318,-0.316802,-0.746879,0.229004
319,-0.382027,-0.69874,0.040991
320,-0.010112,-0.59083,0.002214
321,-0.076641,-0.858528,0.106923
322,0.037124,-0.991266,0.02113
323,0.050882,-1.053789,-0.04687
324,-0.024183,-0.718354,0.398939
325,0.031482,0.797964,0.633817
326,-0.193797,2.721462,0.126628
327,-0.491601,2.261308,-0.182296
328,-0.625679,0.753031,-0.274658
329,-0.305343,0.663071,-0.033785
330,0.265634,0.354428,-0.14879
331,0.336528,0.086961,0.0998
332,0.122764,-0.315576,0.313952
333,0.293102,-0.897215,0.159081
334,0.286082,-1.39737,0.205252
335,0.245378,-1.599995,0.230687
336,-0.06297,-1.185038,0.034276
337,-0.24605,-0.975888,0.118455
338,-0.059379,-0.983594,0.153515
339,0.156566,-0.694203,0.378369
340,-0.596841,0.205696,1.137192
341,-0.653879,4.53073,-0.964095
342,0.897309,0.796176,0.194664
343,0.421132,-0.267914,-0.20743
344,0.239004,-0.063455,-0.164705
345,-0.271062,0.742129,0.117263
346,-0.281829,1.356141,0.301097
347,0.146218,0.5227,-0.323521
348,0.058515,0.002625,-0.068526
349,-0.384835,-0.554823,0.041926
350,-0.583616,-0.787353,-0.076904
351,-0.288099,-0.773492,0.148666
352,-0.028107,-0.893754,0.198138
353,0.032305,-0.880443,0.126431
354,0.11471,-0.95635,0.000759
355,-0.016611,-0.925495,-0.093958
356,0.03409,-0.372214,0.68082
357,-0.084716,0.440171,1.247071
358,-0.447204,2.844849,0.482986
359,-0.653939,2.441377,0.002449
360,-0.618387,1.034402,-0.082454
361,-0.079884,0.899593,-0.072741
362,0.352248,0.698823,-0.355068
363,0.217661,0.438494,-0.098618
364,0.090897,-0.045004,0.151561
365,0.233387,-0.608508,0.274552
366,0.372076,-1.463113,0.227176
367,0.298003,-1.841123,0.344002
368,-0.017332,-1.675534,0.054025
369,-0.243708,-0.992464,0.071201
370,-0.260298,-0.697643,0.048913
371,0.004822,-0.596227,0.14672
372,0.070068,-0.406003,0.34467
373,-0.774352,0.149901,1.746308
374,0.087931,3.550686,-0.615336
375,0.594171,0.992405,0.104754
376,0.303007,0.188771,-0.079685
377,-0.03772,0.019094,-0.262233
378,-0.309461,0.171759,0.088656
379,-0.327405,0.864349,0.145304
380,0.193387,0.863224,-0.380199
381,0.170817,0.164306,-0.18742
382,-0.185564,-0.519159,0.045171
383,-0.466753,-0.87948,-0.032473
384,0.131837,-0.810967,0.170721
385,-0.026493,-0.998086,0.100802
386,-0.022435,-0.971609,0.055555
387,0.056076,-0.968263,0.029932
388,-0.111382,-0.758701,-0.008143
389,-0.035258,-0.436877,0.396219
390,-0.085853,1.703121,0.725413
391,-0.401796,3.014924,0.487121
392,-0.603018,1.667904,0.013515
393,-0.525097,0.890833,-0.014484
394,-0.178747,0.801902,0.034975
395,0.285796,0.670698,-0.389779
396,0.161953,0.510522,-0.102692
397,0.068931,-0.028962,0.224628
398,0.156595,-0.392516,0.347697
399,0.407247,-1.413974,0.245723
400,0.393168,-1.663633,0.258774
401,0.221669,-1.771556,0.226455
402,-0.252989,-1.085131,0.065178
403,-0.138172,-0.91535,-0.05089
404,0.149706,-0.577207,0.044411
405,-0.03858,-0.237972,0.748837
406,-1.28418,1.40983,0.83677
407,0.418827,2.694575,-0.151977
408,0.261988,-0.013331,0.131431
409,0.562569,0.315325,-0.063609
410,0.178283,0.299379,-0.05669
411,-0.207474,0.581794,0.065352
412,-0.222358,1.263961,0.0319
413,0.058068,0.636137,-0.321867
414,0.005393,-0.01452,-0.195312
415,-0.226243,-0.633541,0.097621
416,-0.321084,-0.876597,0.101093
417,-0.152522,-0.874635,0.16226
418,-0.049744,-0.938765,0.171938
419,-0.127052,-0.897498,0.050819
420,-0.005917,-0.903117,0.042858
421,-0.357605,-0.735824,0.12566
422,-0.296427,-0.525612,0.725686
423,-0.268882,-0.141143,1.183847
424,-0.403693,2.760402,0.331945
425,-0.537758,2.476988,0.127479
426,-0.406807,0.912636,-0.072403
427,0.192453,0.874481,-0.148
428,0.274955,0.720551,-0.32114
429,0.113439,0.421836,-0.179339
430,-0.033265,0.025427,0.203839
431,0.070984,-0.543336,0.26431
432,0.250743,-1.310155,0.075376
433,0.236474,-1.611933,0.118584
434,0.106023,-1.610241,-0.03721
435,-0.124166,-0.965991,0.192418
436,-0.168926,-0.844772,0.232682
437,-0.158631,-0.744606,0.186179
438,-0.086156,-0.458574,0.539661
439,-1.164926,0.837797,1.395986
440,0.283384,3.16926,0.049173
441,0.096831,0.555257,-0.195467
442,0.285892,0.282219,-0.264862
443,0.271435,0.109667,-0.148149
444,-0.109276,0.347121,0.139328
445,-0.148172,0.816762,0.212961
446,0.078694,0.61005,-0.354189
447,0.158753,0.182259,0.028271
448,-0.476791,-0.430927,0.168854
449,-0.454646,-0.803682,0.167105
450,-0.267707,-0.785654,0.009704
451,-0.035158,-0.91584,-0.018913
452,0.063422,-1.026145,0.043181
453,0.146693,-1.092138,0.055021
454,-0.028928,-1.050571,0.06385
455,-0.003852,-0.331022,0.926863
456,-0.150692,0.969828,0.728008
457,-0.427264,3.467832,0.229471
458,-0.330568,1.100696,-0.088142
459,-0.445592,0.860695,-0.062907
460,0.036981,0.887182,-0.006383
461,0.080677,0.663987,-0.438031
462,-0.067113,0.328244,-0.094687
463,-0.179475,-0.07409,0.235469
464,0.091339,-0.606313,0.327507
465,0.348859,-1.254438,0.325505
466,0.262227,-1.467696,0.348451
467,-0.033142,-1.4467,0.047787
468,-0.232991,-0.99907,-0.102588
469,-0.058072,-0.801363,0.279016
470,-0.098268,-0.68082,0.189675
471,-0.166129,-0.605425,0.294082
472,-0.884746,1.452719,0.146397
473,-0.323303,2.72727,-0.555339
474,0.633235,0.840716,0.378759
475,0.371572,0.612846,0.219191
476,0.274261,0.456621,-0.151131
477,-0.033288,0.333196,-0.420072
478,0.083024,0.893331,0.103644
479,0.148677,0.687881,-0.027771
480,-0.093852,-0.133022,0.000546
481,-0.357322,-0.639026,0.186836
482,-0.497942,-0.816461,0.226224
483,-0.26289,-0.854019,0.204911
484,-0.170298,-0.905385,0.158371
485,-0.128398,-0.958724,0.149013
486,0.123411,-1.062351,0.142599
487,0.166495,-0.980537,0.213268
488,0.109962,-0.838277,0.37595
489,0.155688,0.307726,0.945157
490,-0.387732,2.594335,0.285586
491,-0.861073,2.693152,0.062763
492,-0.37935,0.655813,-0.008287
493,-0.213831,0.817087,0.018929
494,0.155979,0.702839,-0.081288
495,0.006363,0.466246,-0.176971
496,-0.214216,0.157297,-0.045123
497,-0.052002,-0.178912,0.190199
498,0.266812,-0.508689,0.375037
499,0.367837,-0.96368,0.343901
500,0.333196,-1.108448,0.264169
501,0.114495,-1.187757,0.147595
502,-0.094057,-1.072063,0.156693
503,-0.142417,-0.961736,0.300577
504,-0.077639,-0.880831,0.250336
505,-0.081337,-0.64847,0.27828
506,-0.365435,-0.181931,0.597204
507,0.032584,4.349523,0.233516
508,0.522318,-0.26493,-0.141192
509,0.561629,-0.404224,0.131249
510,0.669048,0.052997,-0.004791
511,0.19521,0.589058,-0.219521
512,-0.007197,1.537148,0.201643
513,0.039727,0.51628,-0.208082
514,0.200819,0.123067,0.002042
515,0.061973,-0.045969,0.216406
516,-0.182666,-0.326797,0.302334
517,-0.274599,-0.646038,0.399421
518,-0.142905,-0.771852,0.467867
519,-0.076843,-0.841467,0.481665
520,-0.014196,-0.997087,0.319094
521,0.105829,-1.006917,0.352196
522,0.255432,-0.301741,1.040849
523,-0.036431,1.015972,0.541782
524,0.10581,1.974993,0.298871
525,-0.238108,0.878515,0.053353
526,0.183645,0.500349,-0.073701
527,0.41106,0.637096,0.098232
528,0.316516,0.522639,-0.014776
529,0.082277,0.27595,0.030137
530,-0.014091,0.1372,0.041403
531,0.142832,-0.216455,0.21708
532,0.30051,-0.547426,0.239612
533,0.361702,-0.672235,0.233322
534,0.480974,-0.772759,0.390141
535,0.254429,-0.77479,0.467643
536,0.093743,-0.725638,0.505789
537,-0.098596,-0.42418,0.283999
538,0.165358,-0.363555,0.375266
539,0.389812,-0.282969,0.142462
540,0.437324,0.356576,1.381693
541,0.876084,3.034407,0.272467
542,0.540006,2.690529,-0.330994
543,0.326489,0.174848,-0.077139
544,0.151953,0.246986,-0.132395
545,0.166225,0.991635,-0.078345
546,0.511933,0.755083,0.095855
547,0.667182,0.296899,0.074757
548,0.704721,0.261623,0.153545
549,0.685535,0.177067,0.215556
550,0.337687,-0.298025,0.373995
551,0.205854,-0.395604,0.315631
552,0.074712,-0.585862,-0.060275
553,0.262952,-0.608887,-0.122308
554,0.376808,-0.603174,-0.063685
555,0.568026,-0.885838,0.175514
556,0.816709,-0.779589,0.292699
557,0.873995,-0.561043,0.49062
558,0.641174,-0.119992,0.655591
559,-0.562223,3.261356,0.214671
560,-0.292404,0.754848,-0.118721
561,0.368744,0.294621,-0.206543
562,0.672809,0.618225,-0.165286
563,0.685818,0.552089,-0.086886
564,0.457664,0.343767,-0.076887
565,0.332213,0.103728,0.150969
566,0.341723,-0.047448,0.155785
567,0.440646,-0.328937,0.134696
568,0.439627,-0.485324,0.085651
569,0.407529,-0.50494,0.066866
570,0.180807,-0.480795,-0.114828
571,0.124509,-0.418122,-0.239887
572,0.140728,-0.416849,-0.250385
573,0.30887,-0.692765,-0.044648
574,0.420947,-0.537508,-0.083111
575,0.431982,-0.346144,-0.170466
576,0.548133,0.739877,0.442485
577,0.793971,1.192865,-0.229124
578,0.726871,1.262294,-0.022568
579,0.153033,0.985766,-0.779995
580,0.363184,0.788529,-0.245566
581,0.380912,0.483248,-0.130822
582,0.442279,0.376459,-0.340731
583,0.39771,0.361484,-0.263214
584,0.391675,0.143155,-0.193474
585,0.391616,0.032026,-0.186852
586,0.276966,-0.155996,-0.332012
587,0.168301,-0.388265,-0.501832
588,0.128544,-0.584431,-0.503867
589,0.269462,-0.729776,-0.415903
590,0.261046,-0.802151,-0.360718
591,0.469763,-0.926589,-0.150706
592,0.241833,-0.421438,0.668029
593,-0.061234,-0.036408,0.39949
594,-0.0091,2.484962,-0.538827
595,-0.01992,1.6572,-0.541067
596,0.211325,0.604149,-0.252471
597,0.147832,0.733353,-0.288704
598,-0.000993,0.705274,-0.504838
599,0.015446,0.506893,-0.422178
600,0.129445,0.165833,-0.238674
601,0.318503,-0.213819,-0.279167
602,0.435706,-0.263086,-0.361344
603,0.59052,-0.589555,-0.332867
604,0.465902,-0.907788,-0.324285
605,0.238775,-0.763787,-0.328
606,0.173307,-0.777614,-0.315063
607,0.205947,-0.943164,-0.294247
608,0.199442,-0.965586,-0.221303
609,-0.00023,-0.499596,0.310462
610,-0.04923,0.13065,0.35862
611,-0.015241,1.261087,0.031737
612,0.325781,0.391758,-0.221084
613,0.313569,0.225546,-0.213378
614,0.199445,0.292138,-0.374863
615,0.44619,0.768647,-0.74654
616,0.472097,0.883174,-0.527697
617,0.395264,0.502949,-0.505422
618,0.398987,0.297484,-0.456666
619,0.327478,0.203004,-0.383562
620,0.146918,0.202067,-0.525964
621,0.047658,-0.015542,-0.674317
622,0.043774,-0.566473,-0.366284
623,-0.041985,-0.696455,-0.15723
624,0.105417,-0.697273,-0.259656
625,0.326521,-0.723559,-0.311583
626,0.455743,-0.711384,-0.367134
627,0.12408,0.013491,0.379517
628,0.046248,0.373917,0.145748
629,-0.362501,1.502857,-0.039513
630,-0.486735,1.295504,0.083636
631,0.202223,1.093448,-0.212739
632,0.190306,1.293187,-0.360884
633,-0.193832,0.898952,-0.60967
634,-0.134647,0.601305,-0.508716
635,-0.206767,0.003852,-0.495368
636,0.238056,-0.197924,-0.248317
637,0.606298,-0.690023,-0.166231
638,0.562722,-1.522077,-0.109091
639,0.276156,-1.668371,-0.187714
640,0.077695,-1.266187,-0.283761
641,-2.70E-05,-1.099459,-0.229089
642,0.048997,-0.981845,-0.257127
643,0.391302,-0.780479,-0.282492
644,0.283029,-0.836777,0.217017
645,-0.937323,0.367573,1.436328
646,0.264319,4.379194,-0.629232
647,0.674029,1.228299,-0.000535
648,0.241205,-0.164959,-0.38508
649,0.293028,0.137483,-0.537936
650,0.485772,0.334115,-0.232162
651,0.080912,0.96967,0.014554
652,0.252652,0.553437,-0.457687
653,0.252429,0.322015,-0.582918
654,-0.186145,0.060378,-0.569358
655,-0.566396,-0.508048,-0.377799
656,-0.596255,-0.663408,-0.372836
657,0.048875,-0.861522,-0.221096
658,0.401445,-0.928897,-0.133049
659,0.358434,-0.803573,-0.225291
660,0.27447,-0.832483,-0.435593
661,0.245228,-0.374957,0.640681
662,-0.198856,0.666761,0.451936
663,-0.375238,2.306555,-0.111133
664,-0.465977,1.22636,-0.323642
665,-0.04865,1.007643,-0.219576
666,0.193687,0.987422,-0.329569
667,0.222388,0.783464,-0.717684
668,0.058267,0.617872,-0.457014
669,-0.080978,-0.092637,-0.259983
670,0.070926,-0.656902,-0.102371
671,0.407988,-1.122502,-0.197402
672,0.368492,-1.624477,-0.11857
673,0.214555,-1.410737,-0.215873
674,-0.152216,-1.078373,-0.156073
675,-0.18675,-0.9742,-0.183878
676,0.189135,-0.770038,-0.096914
677,0.184634,-0.597527,0.012374
678,-0.838787,1.346061,0.308887
679,0.522908,2.360494,-0.469345
680,0.610778,0.883028,-0.159529
681,0.355416,0.385893,-0.513838
682,0.276806,0.16038,-0.462844
683,0.281843,0.171124,-0.265561
684,-0.079466,0.726747,-0.192427
685,0.233672,0.65669,-0.534898
686,0.210081,0.569154,-0.54245
687,-0.190144,-0.085183,-0.457224
688,-0.369368,-0.724504,-0.297847
689,-0.173019,-0.861553,-0.149014
690,0.164929,-0.920388,-0.11311
691,0.174546,-0.842459,-0.192928
692,0.220666,-0.752242,-0.310436
693,0.173781,-0.568908,0.066925
694,-0.07973,0.368545,0.228512
695,0.02493,1.161477,0.004055
696,-0.499255,1.853412,-0.117363
697,-0.332777,1.032168,-0.089441
698,0.075488,1.199738,-0.33888
699,0.120742,1.059643,-0.635069
700,0.116693,0.786229,-0.552583
701,0.062165,0.649826,-0.368916
702,0.147468,-0.291695,-0.092564
703,0.183832,-0.72406,-0.211589
704,0.360315,-1.366066,-0.152711
705,0.35686,-1.801585,-0.047888
706,0.037211,-1.364,-0.097533
707,-0.209244,-1.028647,-0.133138
708,-0.201103,-0.963241,-0.202966
709,0.095458,-0.797985,-0.06066
710,0.082432,-0.267502,0.260459
711,-0.545777,0.419014,0.901004
712,0.100274,2.412783,-0.421407
713,0.369942,0.157984,-0.192912
714,0.248115,0.304134,-0.479003
715,0.226948,0.405115,-0.498833
716,0.383415,0.634197,-0.498673
717,0.319335,0.863862,-0.396318
718,0.380428,0.558008,-0.417821
719,0.268181,0.319632,-0.400092
720,-0.306383,-0.139866,-0.529806
721,-0.340292,-0.552707,-0.31521
722,-0.239923,-0.696134,-0.201304
723,0.072622,-0.96234,-0.051328
724,0.157053,-0.797072,-0.166059
725,0.152049,-0.729882,-0.219306
726,0.015957,-0.756658,-0.472369
727,0.043132,-0.4389,0.651798
728,-0.193424,-0.083529,1.066157
729,-0.323843,2.594662,-0.166063
730,-0.21889,1.486376,-0.28853
731,-0.009564,0.94584,-0.331487
732,0.255357,1.001025,-0.315003
733,0.240948,0.704993,-0.569308
734,0.02382,0.511189,-0.418071
735,-0.000852,0.079523,-0.12116
736,0.211445,-0.564367,-0.036224
737,0.422281,-1.082506,0.099089
738,0.578896,-1.575761,0.12646
739,0.204994,-1.650626,-0.231075
740,-0.164291,-1.154116,-0.297238
741,-0.21595,-0.988616,-0.238338
742,-0.042015,-0.866347,0.010487
743,-0.290789,-0.18956,0.341307
744,-0.40172,1.372597,-0.248511
745,0.399402,1.690798,-0.081426
746,0.300843,0.158494,-0.137187
747,0.340299,0.420578,-0.16513
748,0.107816,0.619505,-0.443093
749,0.210675,0.651229,-0.256555
750,0.079916,0.874212,-0.390759
751,0.158493,0.480727,-0.435463
752,0.170477,0.11831,-0.443478
753,0.01618,-0.182907,-0.594525
754,-0.080169,-0.502934,-0.355578
755,-0.070807,-0.659033,-0.253012
756,-0.12122,-0.812227,-0.123696
757,0.150753,-0.763088,-0.140134
758,0.130636,-0.732691,-0.219274
759,0.207697,-0.691293,-0.329299
760,0.023613,-0.26836,0.842122
761,-0.117918,-0.037188,0.733474
762,-0.511197,2.394892,-0.180755
763,-0.566105,1.976506,-0.120854
764,-0.345187,1.034566,-0.179455
765,0.086184,1.169782,-0.412096
766,0.28164,0.680728,-0.694261
767,0.222118,0.412552,-0.463303
768,0.163886,-0.061716,-0.313228
769,0.229431,-0.696868,-0.187617
770,0.374117,-1.215058,-0.079623
771,0.300391,-1.720703,-0.039249
772,0.087397,-1.482743,-0.131221
773,-0.074777,-1.264836,-0.13818
774,-0.163526,-0.976667,-0.158814
775,-0.023237,-0.834724,-0.087164
776,0.15102,-0.604815,0.007134
777,-0.27304,0.146069,0.964602
778,-0.202646,1.999035,-0.412986
779,0.217794,1.777704,-0.392169
780,0.279713,0.174093,-0.43535
781,0.420236,0.362479,-0.188617
782,0.15907,0.692897,-0.516156
783,0.259244,1.004151,-0.239122
784,0.155836,0.935042,-0.458643
785,0.346373,0.559509,-0.501931
786,0.198522,0.180798,-0.44144
787,-0.014395,-0.07551,-0.450287
788,-0.25368,-0.361771,-0.52339
789,-0.177484,-0.737116,-0.31959
790,-0.070739,-0.961579,-0.016413
791,0.262132,-0.903068,-0.020923
792,0.158284,-0.738737,-0.171425
793,0.221442,-0.664478,-0.33655
794,0.107217,-0.392808,0.307963
795,0.011436,0.020034,0.571526
796,-0.08339,1.392221,0.014587
797,-0.39316,1.9281,0.023654
798,-0.320985,1.232483,-0.029198
799,-0.01208,1.225732,-0.314759
800,-0.006799,1.12517,-0.456411
801,0.056224,0.701352,-0.529926
802,0.098691,0.295137,-0.280747
803,0.325278,-0.316963,-0.078267
804,0.421477,-0.784138,-0.210575
805,0.337295,-1.595522,-0.06145
806,0.318019,-1.807171,0.004288
807,-0.002217,-1.257554,-0.010521
808,-0.126699,-1.057583,-0.014691
809,-0.069195,-0.933965,-0.100909
810,0.089525,-0.805553,0.038587
811,-0.063302,-0.445613,0.441459
812,-0.332935,3.192452,-0.604919
813,0.637954,0.841072,0.087491
814,0.603839,0.197619,-0.345539
815,0.475456,0.473307,-0.444131
816,0.419988,0.305722,-0.447174
817,0.311303,0.527447,-0.128156
818,0.142871,0.890759,-0.309701
819,0.250111,0.508548,-0.534577
820,0.10708,-0.067127,-0.4241
821,-0.060706,-0.34467,-0.369975
822,-0.254416,-0.703503,-0.205687
823,-0.012484,-0.793224,-0.057193
824,0.128839,-0.80046,-0.066075
825,0.165044,-0.826633,-0.21279
826,0.262571,-0.698858,-0.053731
827,0.033855,-0.397537,0.529498
828,0.228684,-0.053429,0.216253
829,-0.017421,1.420828,-0.529899
830,-0.7234,2.014294,0.109443
831,-0.241068,1.154137,-0.272178
832,0.314482,1.336088,-0.257283
833,0.302508,1.207953,-0.435734
834,0.017539,0.382592,-0.429824
835,0.051659,0.012191,-0.267794
836,0.080876,-0.508396,0.01301
837,0.10696,-0.899432,-0.142504
838,0.484551,-1.641842,-0.101135
839,0.483003,-1.515524,-0.112793
840,0.216888,-1.21179,-0.124235
841,0.000363,-1.030036,-0.205576
842,-0.023688,-0.924036,-0.272544
843,0.130952,-0.659066,-0.028714
844,-0.245048,-0.025132,0.565479
845,-0.790108,2.01558,-0.06574
846,0.210622,1.443615,-0.428705
847,0.438902,-0.016788,-0.369753
848,0.620817,0.298001,-0.371753
849,0.316711,0.372521,-0.479385
850,0.179426,0.497999,-0.097816
851,-0.022519,0.978472,-0.092563
852,0.056051,0.64458,-0.422985
853,-0.045435,-0.032084,-0.547974
854,-0.197894,-0.514475,-0.328439
855,-0.078173,-0.886322,0.036101
856,-0.078923,-0.799002,-0.078965
857,0.09244,-0.778943,-0.159734
858,0.08434,-0.806762,-0.282034
859,0.24999,-0.904361,-0.322724
860,0.241072,-0.831805,-0.29024
861,0.259423,-0.322694,0.731924
862,-0.009741,0.781639,0.288488
863,-0.192663,2.405964,0.063165
864,-0.430091,1.338724,-0.304292
865,-0.271363,1.107355,-0.324381
866,-0.016738,1.140073,-0.233939
867,0.284088,0.735484,-0.643247
868,0.107589,0.138264,-0.406384
869,-0.046619,-0.310102,-0.155099
870,0.409159,-0.876424,-0.013581
871,0.760513,-1.469499,0.08279
872,0.740356,-1.795148,0.014264
873,0.124753,-1.342486,-0.479687
874,-0.162226,-1.072115,-0.272865
875,-0.200449,-0.917115,-0.213335
876,0.129138,-0.817708,-0.17451
877,0.097034,-0.223107,0.287954
878,-0.758282,1.219682,0.985876
879,0.192744,3.012617,-0.56398
880,0.220247,-0.248552,-0.427188
881,0.304223,-0.248338,-0.456841
882,0.167053,0.238496,-0.453007
883,0.077146,1.074884,0.113654
884,0.055549,1.293865,-0.350961
885,0.509802,0.684792,-0.620673
886,0.259675,0.058021,-0.580298
887,-0.116886,-0.509899,-0.305553
888,-0.40167,-0.863155,-0.231298
889,-0.253773,-0.814131,-0.183941
890,0.074527,-0.71718,-0.051457
891,0.162876,-0.785396,-0.038497
892,0.204929,-0.781331,-0.234849
893,0.09564,-0.694638,-0.355277
894,0.040257,-0.277635,0.635105
895,0.251377,1.987138,0.07085
896,-0.314974,2.753889,-0.079322
897,-0.228629,1.078993,-0.167753
898,0.1453,0.970143,-0.232415
899,0.121729,0.977121,-0.296754
900,0.02543,0.493297,-0.536417
901,-0.094238,0.137014,-0.216278
902,-0.029653,-0.141871,-0.092189
903,0.528401,-1.042868,-0.040517
904,0.622201,-1.681672,0.09674
905,0.565229,-1.861282,0.098495
906,-0.06258,-1.363936,-0.123677
907,-0.312875,-1.031177,-0.199571
908,-0.196501,-0.801468,-0.286716
909,0.449227,-0.334325,-0.068881
910,-0.129746,0.152689,1.222109
911,-0.408283,3.716548,-0.533414
912,0.373761,0.724088,-0.292802
913,0.391529,-0.191498,-0.595757
914,0.31594,0.050367,-0.295739
915,0.165047,0.317058,-0.040955
916,0.004568,0.884428,0.010002
917,0.107656,0.935062,-0.199959
918,0.218683,0.440699,-0.552337
919,-0.068824,-0.04156,-0.448335
920,-0.284713,-0.21125,-0.435661
921,-0.298499,-0.716332,-0.145916
922,0.117213,-0.868017,-0.091913
923,0.127839,-0.868038,-0.089066
924,0.338102,-0.853218,-0.199286
925,0.245038,-0.857788,-0.415326
926,0.243106,-0.866466,-0.387763
927,-0.00305,-0.037964,0.928831
928,-0.361745,2.995322,0.222594
929,-0.37023,2.987582,0.260998
930,-0.437735,0.881649,-0.428383
931,-0.121139,0.791759,-0.242783
932,-0.107044,0.791861,-0.211682
933,0.442028,0.467467,-0.4531
934,0.201921,0.216478,-0.212142
935,0.155095,-0.384972,-0.145746
936,0.429231,-0.914147,-0.244621
937,0.506807,-1.436477,-0.169119
938,0.353538,-1.884437,-0.015489
939,-0.005907,-1.284346,-0.153028
940,-0.19862,-0.830973,-0.118601
941,-0.162975,-0.644939,-0.216263
942,0.244717,-0.384992,-0.222695
943,-0.399206,-0.347169,1.053087
944,-0.987555,0.149725,1.704266
945,0.744626,1.973269,-0.531263
946,0.367624,0.317755,-0.575704
947,0.410282,0.240101,-0.624861
948,0.531149,0.192161,-0.551567
949,0.359075,0.362084,-0.07554
950,0.204595,0.858858,-0.170332
951,0.339524,0.484352,-0.674926
952,0.060495,-0.245795,-0.320822
953,-0.355765,-0.543297,-0.060259
954,-0.714403,-0.858663,0.056023
955,-0.188749,-0.477245,-0.22312
956,0.018814,-0.614774,-0.169542
957,0.244925,-0.870439,-0.125204
958,0.166425,-0.911386,-0.378864
959,0.073693,-0.931652,-0.387774
960,-0.043097,-0.584381,-0.025354
961,0.015265,0.478286,1.105602
962,0.015277,0.46809,1.16466
963,-0.158224,1.68214,-0.330614
964,-0.192177,0.408903,-0.737316
965,-0.182914,0.696205,-0.463138
966,0.551892,0.493588,-0.604955
967,-0.004301,0.366981,-0.372302
968,-0.071597,0.07996,-0.167668
969,0.26499,-0.79353,0.116194
970,0.539222,-1.750777,-0.064545
971,0.546853,-1.749848,-0.107194
972,-0.078575,-1.242198,-0.251637
973,0.029303,-0.983113,-0.255679
974,0.167141,-0.911709,-0.150322
975,0.070943,-0.30843,-0.03493
976,-0.860925,3.49571,-0.313549
977,0.451938,3.876388,-0.379321
978,0.292674,-0.26405,-0.334198
979,0.651975,0.156126,-0.001878
980,0.634619,0.289512,-0.214491
981,0.444891,0.328859,-0.41566
982,0.110389,1.436005,-0.069415
983,-0.085177,1.447676,-0.377068
984,0.060535,-0.177818,-0.447491
985,-0.188306,-0.656453,-0.286237
986,-0.23609,-0.731652,-0.234824
987,-0.047975,-0.727312,-0.120515
988,0.194874,-0.831161,-0.214354
989,0.201397,-0.807874,-0.198038
990,0.107987,-0.78034,-0.223963
991,-0.033176,-0.861501,-0.387512
992,-0.123221,-0.880357,-0.403272
993,0.239527,-0.273861,1.19828
994,0.074078,1.185445,0.650077
995,-0.250827,3.580464,0.506173
996,-0.289533,1.076401,-0.594244
997,-0.246545,0.935309,-0.359784
998,-0.108063,0.907646,-0.330483
999,0.5109,0.43197,-0.400778
1000,0.216871,0.381461,-0.213145
1001,0.247614,-0.676131,0.146995
1002,0.63614,-1.49371,0.126217
1003,0.672542,-1.542593,-0.003695
1004,0.570896,-1.533647,-0.084556
1005,-0.239408,-1.149403,-0.124789
1006,-0.350626,-0.96466,-0.16276
1007,-0.115619,-0.859867,-0.197421
1008,0.19148,-0.343352,0.050955
1009,-0.884837,0.605169,1.404609
1010,0.645595,3.061513,-0.665121
1011,0.467218,0.104133,-0.292171
1012,0.636194,0.146353,-0.366125
1013,0.526716,0.365231,-0.538389
1014,0.268745,0.386486,0.00605
1015,-0.124912,1.10842,-0.24145
1016,0.255476,0.654059,-0.641527
1017,0.374299,0.19048,-0.47889
1018,-0.08618,-0.462087,-0.308447
1019,-0.245697,-0.806926,-0.152268
1020,-0.218001,-0.742524,-0.057054
1021,0.105852,-0.677666,-0.214638
1022,0.111122,-0.682996,-0.198065
1023,0.225387,-0.7037,-0.209258
1024,0.268059,-0.286527,0.703241
1025,0.334519,-0.046975,0.647192
1026,-0.004047,1.29887,-0.235139
1027,-0.794222,2.190454,0.120707
1028,-0.429755,1.329777,-0.070077
1029,0.175142,1.372597,-0.344091
1030,0.071102,0.72063,-0.617536
1031,0.160536,0.914787,-0.32407
1032,-0.20669,-0.566845,-0.62758
1033,0.169667,-0.881977,-0.000758
1034,0.501818,-0.968025,-0.027074
1035,0.450321,-1.722611,-0.089931
1036,0.193405,-1.535088,0.002587
1037,-0.004374,-1.370671,0.005119
1038,-0.201237,-1.063306,-0.230693
1039,0.041271,-0.693272,-0.003075
1040,-0.017858,-0.433979,0.177632
1041,-0.667807,0.869609,0.995989
1042,0.11788,2.244884,-0.37043
1043,0.287416,0.619256,-0.173123
1044,0.805993,-0.051379,-0.230327
1045,0.686056,0.359011,-0.212606
1046,0.543741,0.441363,-0.315798
1047,0.122325,1.433994,-0.025687
1048,-0.044918,1.041945,-0.267841
1049,-0.060205,0.668154,-0.382629
1050,-0.237212,-0.324539,-0.43133
1051,-0.22769,-0.724011,-0.230085
1052,-0.230092,-0.716054,-0.258195
1053,0.167905,-0.816675,-0.031283
1054,0.178526,-0.820264,-0.041776
1055,0.158554,-0.805582,-0.114024
1056,0.145655,-0.751331,-0.399205
1057,0.097428,-0.417746,0.430974
1058,-0.070778,-0.09391,0.776183
1059,0.187443,0.768316,0.166467
1060,-0.14965,1.820956,-0.178451
1061,-0.335572,1.712339,-0.050121
1062,0.001923,1.129956,-0.210227
1063,0.082705,0.78815,-0.829623
1064,0.097714,0.790271,-0.803313
1065,0.164213,0.509888,-0.302878
1066,0.201438,-0.509274,0.074003
1067,0.203705,-0.50929,0.063396
1068,0.405625,-1.887619,-0.134672
1069,0.138176,-1.519463,-0.096117
1070,-0.188518,-1.11931,0.041237
1071,-0.283408,-0.98642,0.002613
1072,0.032381,-0.788204,-0.003689
1073,0.146045,-0.62463,0.094694
1074,-0.199131,0.043919,0.991272
1075,-0.346348,2.19813,-0.241271
1076,0.028049,1.901886,-0.022052
1077,0.240952,0.137977,-0.440376
1078,0.236994,0.302566,-0.368052
1079,0.027453,0.367227,-0.511086
1080,0.171531,0.767858,-0.351625
1081,0.402604,0.745003,-0.264852
1082,0.428374,0.574805,-0.410019
1083,0.186554,-0.207203,-0.425777
1084,-0.159508,-0.371077,-0.233279
1085,-0.403165,-0.477622,-0.207079
1086,-0.219663,-0.613607,-0.407064
1087,-0.006729,-0.671426,-0.154409
1088,0.070728,-0.76021,-0.075879
1089,0.264325,-0.823636,-0.302423
1090,0.335676,-0.817721,-0.479059
1091,0.237779,-0.542248,0.003244
1092,0.086271,0.120686,0.969127
1093,0.03936,1.836704,-0.022133
1094,-0.272804,2.235256,-0.134896
1095,-0.684864,1.196825,-0.202337
1096,-0.322972,1.103549,-0.246371
1097,-0.18047,1.090082,-0.50646
1098,0.272831,0.797503,-0.629393
1099,0.108355,0.50733,-0.355986
1100,0.119158,0.280356,-0.28769
1101,0.292636,-0.876684,-0.153155
1102,0.524638,-1.397503,-0.106402
1103,0.595042,-1.805027,-0.143392
1104,-0.093586,-1.388646,-0.071001
1105,-0.257901,-1.039133,0.250443
1106,-0.263864,-0.987072,0.248472
1107,-0.063753,-0.365311,-0.05118
1108,0.014357,-0.380044,-0.028276
1109,-0.393662,-0.354011,0.873399
1110,0.323588,4.074282,-0.637798
1111,0.553051,0.291301,0.49129
1112,0.553268,0.288258,0.459301
1113,0.555477,-0.212407,-0.627906
1114,0.159793,0.495185,-0.720005
1115,0.019601,1.567328,-0.016672
1116,0.221694,0.821974,-0.360852
1117,0.149586,0.129591,-0.375244
1118,-0.012219,0.011275,-0.336799
1119,-0.680604,-0.54674,-0.079028
1120,-0.249805,-0.848319,-0.081068
1121,0.096874,-0.868678,-0.035139
1122,0.230863,-0.859383,-0.154255
1123,0.277041,-0.745708,-0.240555
1124,0.301878,-0.802033,-0.345464
1125,0.213447,-0.343302,0.76083
1126,-0.124914,0.392515,0.347907
1127,-0.264402,1.120669,0.07939
1128,-0.588859,1.396246,-0.006622
1129,-0.413807,1.054231,0.018405
1130,0.08217,1.121656,-0.212103
1131,0.256761,0.994266,-0.567531
1132,0.114045,0.690113,-0.447427
1133,0.057293,0.451138,-0.307232
1134,-0.03373,-1.080678,-0.107258
1135,0.371458,-1.064071,0.038571
1136,0.64677,-1.209346,0.098739
1137,0.37928,-1.577802,0.057346
1138,-0.186281,-1.193682,-0.114433
1139,-0.198703,-1.196137,-0.105914
1140,0.000798,-0.80421,-0.041928
1141,-0.009704,-0.542132,0.245225
1142,-0.444339,0.521551,0.999854
1143,0.133726,2.642232,-0.391674
1144,0.436741,0.422526,0.044615
1145,0.505517,-0.057641,-0.134868
1146,0.303881,0.308106,-0.161749
1147,-0.092681,0.452371,-0.398494
1148,-0.064751,0.560253,-0.377665
1149,0.193413,1.069384,-0.356906
1150,0.313375,0.556345,-0.584269
1151,0.445997,0.271665,-0.516711
1152,-0.077585,-0.325224,-0.362695
1153,-0.313306,-0.56338,-0.369935
1154,-0.166607,-0.643159,-0.305982
1155,0.089608,-0.899341,0.02998
1156,0.157728,-0.867516,-0.050413
1157,0.196308,-0.75033,-0.247843
1158,0.245987,-0.646586,-0.330313
1159,0.048504,-0.201406,0.836537
1160,0.095764,0.75971,0.42501
1161,-0.45713,2.456193,0.115659
1162,-0.378533,1.174512,-0.017951
1163,-0.3443,0.890615,-0.060502
1164,0.076708,1.033011,-0.286466
1165,0.149082,0.811781,-0.637746
1166,0.167889,0.823338,-0.504277
1167,0.113614,-0.206961,-0.231274
1168,0.323955,-0.800519,-0.092921
1169,0.492038,-0.928661,-0.06231
1170,0.464581,-1.817361,0.094114
1171,0.004062,-1.450477,-0.050683
1172,-0.26809,-1.338805,-0.066681
1173,-0.446629,-0.998085,-0.22342
1174,0.115929,-0.818392,-0.093644
1175,0.270253,-0.650159,0.052908
1176,-0.247877,0.155477,1.261526
1177,-0.495638,3.355413,-0.248764
1178,0.265815,2.521449,-0.38834
1179,0.282496,0.007013,-0.544149
1180,0.193113,0.053738,-0.125166
1181,0.100964,0.218843,-0.326696
1182,0.160927,0.767536,-0.046425
1183,0.394553,0.7915,-0.398724
1184,0.379765,0.796789,-0.458675
1185,-0.082955,-0.2107,-0.295532
1186,-0.43739,-0.61366,-0.169851
1187,-0.443962,-0.6077,-0.195356
1188,0.074164,-0.817888,0.031783
1189,0.178922,-0.961919,-0.034372
1190,0.190851,-0.965626,-0.016416
1191,0.149426,-0.950472,-0.272833
1192,-0.004201,-0.745968,-0.276312
1193,0.065652,-0.469392,0.290703
1194,0.003498,0.363715,0.841497
1195,-0.258719,2.772417,0.076993
1196,-0.445572,2.363377,-0.228636
1197,-0.259592,0.63237,-0.462459
1198,0.098621,0.793278,-0.469046
1199,0.581647,0.957622,0.438091
1200,-0.113436,0.124506,-0.369243
1201,0.114701,-0.075788,-0.162416
1202,0.258259,-0.30167,0.036427
1203,0.465874,-1.609547,0.30638
1204,0.383341,-1.586927,0.19166
1205,0.163791,-1.352115,-0.012085
1206,-0.289156,-0.858217,-0.093968
1207,-0.272636,-0.881253,-0.113675
1208,0.193824,-0.96101,0.186179
1209,-0.056558,-0.526445,0.771604
1210,-0.457692,-0.180124,1.42759
1211,-0.22116,3.595909,-0.666796
1212,0.240891,-0.030498,-0.498877
1213,0.324836,0.115193,-0.411384
1214,0.304033,0.076195,-0.355794
1215,0.117852,0.5515,-0.199878
1216,0.302275,0.904291,-0.191321
1217,0.310044,0.591315,-0.517804
1218,0.159994,0.044285,-0.351236
1219,-0.165876,-0.324305,-0.615239
1220,-0.282416,-0.617801,-0.38061
1221,-0.056401,-0.535332,-0.16332
1222,0.038244,-0.831208,-0.002785
1223,0.044195,-0.832999,0.005175
1224,0.086083,-0.91758,-0.199558
1225,0.00194,-0.64376,-0.17248
1226,0.007682,-0.649471,-0.144499
1227,0.160581,0.52393,0.501985
1228,-0.239683,2.723487,0.170725
1229,-0.506553,2.188408,-0.074373
1230,-0.275621,0.645744,-0.414494
1231,0.24635,0.672059,-0.338965
1232,0.259816,0.674238,-0.313764
1233,0.196708,0.359222,-0.428193
1234,0.052238,-0.290546,-0.038045
1235,0.111258,-0.600299,0.003492
1236,0.324608,-1.436351,-0.019334
1237,0.291897,-1.68904,0.034981
1238,0.141901,-1.470918,-0.050433
1239,-0.168256,-1.120738,-0.039564
1240,-0.186325,-1.00146,-0.121977
1241,0.037406,-0.915386,-0.016833
1242,-0.030724,-0.191667,0.256799
1243,-0.466987,3.191459,-0.748742
1244,0.032948,2.552244,-0.367893
1245,0.324167,0.204043,-0.357793
1246,0.417212,0.243293,-0.524426
1247,0.404286,0.173067,-0.445051
1248,0.26833,0.833145,-0.055505
1249,0.155762,0.825513,-0.153415
1250,0.161406,0.682265,-0.383775
1251,-0.002073,0.050911,-0.423731
1252,-0.119218,-0.08315,-0.414332
1253,-0.266789,-0.275466,-0.362949
1254,-0.001213,-0.836055,-0.100268
1255,0.112003,-0.883904,-0.13089
1256,0.135531,-0.847915,-0.225343
1257,0.20842,-0.771602,-0.387127
1258,0.272598,-0.485503,0.178194
1259,0.250134,0.145294,0.763378
1260,-0.053075,1.480814,-0.053091
1261,-0.8057,1.926562,0.158702
