,userAcceleration.x,userAcceleration.y,userAcceleration.z
0,0.347974,0.23424,3.123299
1,0.135897,-0.78948,0.484382
2,0.012378,0.362042,0.684714
3,0.167311,1.511717,0.490469
4,0.57768,0.687962,-0.021989
5,0.51073,0.652772,-0.069782
6,0.099717,0.98169,0.051569
7,-0.311903,0.965137,-0.692852
8,0.473564,0.726611,-0.610166
9,0.707044,0.621577,-0.855132
10,0.709695,-0.527946,-0.513458
11,0.92296,-1.196466,-0.712631
12,1.094381,-0.994459,-0.651422
13,0.945859,-1.257836,-0.368533
14,0.128243,-0.725868,-0.444934
15,-0.453518,-0.275771,-0.637783
16,-0.617414,-0.25896,-0.258642
17,-0.259119,0.231116,0.017343
18,0.209938,1.333559,0.14602
19,0.364196,2.184761,0.454304
20,-0.986661,0.913899,-0.177071
21,-0.22175,2.074215,0.282509
22,0.451862,0.804048,-0.243675
23,0.647807,0.660285,-0.008283
24,0.427618,0.52548,0.258852
25,0.214387,0.479483,0.580276
26,-0.336444,-0.090394,0.554732
27,-1.04738,-0.932901,0.682477
28,-0.945817,-1.547683,0.731186
29,-0.497352,-1.761934,1.059717
30,-0.341392,-1.670043,0.706208
31,0.092662,-0.610195,-0.621909
32,0.392902,-0.073273,-1.584041
33,0.775192,0.880718,-0.411603
34,-0.504657,-0.458291,1.664652
35,-1.626863,2.417622,-3.3222
36,-0.194263,1.520057,3.062587
37,-0.113094,-0.351332,1.326964
38,-0.416683,-0.102711,0.912936
39,-0.326075,0.637015,0.796093
40,0.86543,1.58651,0.366754
41,0.481856,0.613139,0.106868
42,0.19833,0.945013,0.097769
43,-0.431249,1.129575,-0.773435
44,0.096989,0.729063,-0.814229
45,0.433165,0.686694,-0.725911
46,0.800551,0.349796,-0.529894
47,0.909526,-0.952235,-0.756843
48,1.119879,-1.120025,-0.793707
49,1.039251,-0.959431,-0.701594
50,0.218742,-0.80781,-0.433379
51,-0.184471,-0.540681,-0.378544
52,-0.348352,0.168046,-0.390545
53,-0.245711,0.399589,-0.518233
54,0.148974,1.467304,0.59107
55,-0.452932,0.886369,0.523999
56,-0.721374,1.476736,-0.554993
57,-0.348536,2.076298,-0.180315
58,0.750498,0.850174,-0.173533
59,0.312882,0.66079,0.136514
60,0.416809,0.543213,0.305237
61,-0.097173,0.36175,0.674885
62,-0.310483,-0.108061,0.520667
63,-0.607818,-0.465605,0.637399
64,-0.891707,-1.660585,1.107338
65,-0.764305,-1.969662,1.458439
66,-0.783107,-2.209193,1.035508
67,-0.373227,-0.998408,-0.152162
68,0.079664,-0.105479,-1.696493
69,0.494788,0.571053,-1.479916
70,-0.864201,-0.582585,1.391473
71,-1.422984,-0.075885,0.118311
72,-2.021955,2.240108,-5.269786
73,0.174678,0.120277,1.80048
74,-0.320456,-0.462559,0.93538
75,-0.195091,0.534223,1.111452
76,0.278426,1.819294,0.799208
77,0.817829,1.129302,-0.162726
78,0.352504,0.907052,-0.20099
79,0.009709,1.049562,-0.413823
80,-0.213394,0.946919,-0.946826
81,0.189989,0.614866,-0.645191
82,0.624562,0.279802,-0.414638
83,0.668093,-0.607102,-0.714974
84,1.001665,-1.089118,-0.84113
85,0.856261,-1.201642,-0.420182
86,0.497528,-1.117862,-0.448497
87,0.00256,-0.755926,-0.561599
88,-0.433151,-0.231203,-0.483808
89,-0.134438,0.196112,-0.111026
90,0.147619,0.616198,0.059916
91,0.457502,1.897787,0.702403
92,-0.753736,0.859501,0.34213
93,-1.040405,1.410887,-0.895763
94,0.452679,0.960098,-0.106833
95,0.369139,0.735041,0.013592
96,0.285298,0.696261,0.092207
97,-0.124408,0.30944,0.723813
98,0.073109,0.307697,0.651087
99,-0.559922,-0.64389,0.630452
100,-0.990827,-1.472561,0.883403
101,-0.991231,-1.75904,1.031551
102,-1.051771,-2.036396,1.148702
103,-0.263135,-1.092029,0.17473
104,0.229646,-0.092569,-1.611792
105,0.753789,0.691657,-1.816845
106,0.175763,0.276517,1.327663
107,-1.376802,-0.184347,0.926525
108,-1.981069,1.013663,-3.534953
109,0.095321,-0.181145,2.324419
110,-0.006474,-0.603751,0.592692
111,-0.061026,-0.477715,0.532243
112,0.624559,1.562892,0.845701
113,0.471989,0.762729,0.099154
114,0.167496,0.478048,-0.237303
115,-0.084506,0.905757,-0.073099
116,-0.115482,0.983141,-0.752666
117,0.302406,0.779685,-0.680873
118,0.702331,0.712997,-0.414801
119,0.673375,-0.295211,-0.627952
120,0.939107,-1.1016,-0.720229
121,1.125776,-1.14527,-0.730772
122,0.885086,-1.1591,-0.402336
123,0.003349,-0.5898,-0.595396
124,-0.16805,-0.552454,-0.595076
125,-0.218427,-0.344049,-0.181592
126,-0.064345,0.203867,-0.061915
127,0.37564,1.260898,0.279147
128,-0.112878,1.495895,0.673828
129,-0.711849,1.297104,-0.222508
130,-0.740606,1.451292,-0.103303
131,0.615081,0.599055,0.044971
132,0.588029,0.559329,0.014247
133,0.29844,0.337027,0.432501
134,-0.168624,-0.003762,0.598526
135,-0.333136,-0.223235,0.568949
136,-0.825104,-0.919,0.807312
137,-0.968774,-1.656815,1.184894
138,-0.974988,-1.872645,1.013481
139,-0.300424,-1.029517,0.287738
140,-0.009767,-0.392006,-0.91793
141,0.443231,0.203381,-1.525167
142,0.156897,0.464571,0.5371
143,-1.264095,-0.245944,0.854893
144,-1.801651,1.250941,-2.803026
145,0.172402,0.148212,2.307914
146,-0.003623,-0.644057,0.614767
147,-0.268074,-0.923328,0.570137
148,0.198707,1.408214,0.947781
149,0.757334,1.34691,0.440853
150,0.550625,0.578816,-0.238824
151,0.214165,0.872752,-0.074843
152,-0.060681,1.065849,-0.775087
153,0.139758,1.05986,-0.861857
154,0.635761,0.735339,-0.556656
155,0.649857,-0.054542,-0.523718
156,0.651621,-0.530403,-0.630402
157,1.082834,-1.062181,-0.774571
158,0.646134,-1.32138,-0.397471
159,0.620979,-1.324873,-0.37579
160,-0.206295,-0.369242,-0.629436
161,-0.279104,-0.320316,-0.382351
162,-0.271878,-0.240449,-0.088494
163,0.685779,1.60111,0.26725
164,1.045613,2.757725,0.429391
165,0.808607,2.562734,0.616842
166,-0.797696,1.308019,-0.483607
167,0.022857,1.15169,0.134902
168,0.198778,0.704862,-0.036314
169,-0.081375,0.166389,0.443645
170,-0.25272,-0.072779,0.425489
171,-0.073742,-0.16451,0.376049
172,-0.977428,-0.860778,1.058083
173,-1.162887,-1.270253,1.144172
174,-1.222641,-1.888693,1.204281
175,0.327529,-0.979353,-0.01001
176,0.438705,-0.674908,-0.848134
177,1.303029,1.424075,0.268948
178,0.389757,0.752437,0.921337
179,-2.045565,-0.880629,-1.160824
180,-2.590873,0.482917,-4.400663
181,-0.991696,2.031864,3.28514
182,-0.125578,-0.714505,0.614408
183,0.068989,-1.128615,0.844548
184,0.59731,1.512614,1.055218
185,0.858798,2.32795,0.673254
186,0.93047,0.747984,-0.251715
187,-0.104894,0.989941,-0.096494
188,-0.333278,1.133626,-0.616607
189,-0.137186,1.122052,-0.782637
190,0.65156,0.896963,-0.697259
191,0.925428,-0.368473,-0.738016
192,0.900564,-0.911218,-0.83954
193,0.813113,-1.232157,-0.7637
194,0.5767,-1.234858,-0.392326
195,0.331331,-1.034172,-0.456087
196,-0.364651,-0.471995,-0.504075
197,-0.34507,-0.281797,-0.142708
198,-0.246907,-0.033926,-0.124771
199,0.79841,1.477948,0.163661
200,0.139713,1.418159,0.728051
201,-0.596695,0.867184,0.67774
202,0.262579,1.573695,0.141986
203,0.612481,0.730927,0.027395
204,0.488947,0.734058,0.087788
205,0.254493,0.513928,0.518427
206,-0.165824,0.363229,0.702423
207,-0.285657,0.191307,0.659381
208,-0.778937,-0.799395,0.650547
209,-0.854558,-1.385763,0.773242
210,-0.823569,-1.554728,0.880546
211,-0.639556,-1.697595,0.674386
212,-0.047431,-0.550378,-0.831897
213,0.339683,-0.071175,-1.46667
214,0.26151,0.916121,0.351115
215,-0.801446,0.564129,1.035242
216,-0.957485,1.991756,-2.019957
217,-1.123131,-1.287185,1.27386
218,-0.881584,-0.09313,1.103491
219,-0.714816,0.117704,0.969235
220,-0.092603,1.154414,0.381002
221,1.237128,1.449195,0.441758
222,0.639688,0.91576,0.257807
223,-0.022382,0.849842,0.043321
224,-0.338376,0.964349,-0.638517
225,0.427342,0.904832,-0.776647
226,0.745529,0.602538,-0.588539
227,0.744461,-0.069498,-0.43424
228,0.478275,-1.019715,-0.802383
229,0.882811,-0.982992,-0.768919
230,0.79286,-1.4019,-0.460592
231,0.674869,-1.481197,-0.486351
232,0.06308,-0.637805,-0.539956
233,-0.141614,-0.51709,-0.383537
234,-0.142168,-0.386716,-0.084792
235,0.222093,0.237175,-0.021862
236,1.25502,2.899687,0.501352
237,0.221853,2.663903,0.745913
238,-0.759332,1.744574,-0.754912
239,0.076686,1.094512,0.044731
240,0.370648,0.712966,-0.010605
241,0.412968,0.5253,0.353224
242,-0.38313,0.237543,0.741336
243,-0.337099,0.134811,0.684328
244,-1.271518,-0.723796,0.585243
245,-1.368611,-1.284113,1.106079
246,-1.299211,-1.49632,1.269049
247,-1.098006,-1.839049,0.805077
248,-0.364442,-1.09081,0.091834
249,-0.143292,-0.838774,-0.565868
250,1.032007,0.871533,-1.214358
251,-0.100848,0.287359,1.643374
252,-0.927948,-0.432899,1.836117
253,-1.201111,2.649983,-3.159573
254,0.429795,0.581427,2.154592
255,0.35253,-0.064179,1.402744
256,-0.123676,-0.438734,0.848121
257,0.291287,2.012721,1.025721
258,0.345913,1.326769,0.387728
259,0.276964,1.076218,-0.099095
260,0.349453,1.145033,-0.195971
261,0.086146,1.062526,-0.941611
262,0.254724,0.854619,-0.74047
263,0.658764,0.098996,-0.487675
264,0.761294,-0.462225,-0.65193
265,1.030232,-1.210225,-0.754064
266,1.148091,-1.28897,-0.599863
267,0.773429,-1.627758,-0.458224
268,0.178344,-0.767354,-0.864597
269,-0.296358,-0.079443,-0.536496
270,-0.286066,-0.1992,-0.175803
271,0.129459,0.41646,-0.008965
272,0.683804,1.963295,0.37606
273,-0.07607,2.278314,0.717466
274,-0.749336,1.987324,-0.741746
275,-0.212467,1.712759,0.11593
276,0.375189,0.887239,0.29434
277,0.455918,0.617495,0.218336
278,0.031968,0.415429,0.679746
279,-0.072856,0.315931,0.678224
280,-0.803362,-0.303195,0.555104
281,-1.114658,-1.428043,1.080193
282,-1.143302,-1.689094,1.274032
283,-0.979186,-2.056701,1.097933
284,-0.528655,-1.164884,0.017911
285,-0.342055,-0.83422,-0.56374
286,1.055234,0.870856,-0.246383
287,-0.110202,0.729603,0.8147
288,-0.953766,0.809609,0.31677
289,-0.398227,0.354476,2.489732
290,-0.620061,-0.554731,1.994516
291,-1.19848,-1.318223,0.91752
292,-0.342081,1.251035,0.646912
293,1.060716,2.107646,0.223104
294,1.259073,1.005361,0.1385
295,0.069451,1.093108,0.010241
296,-0.254111,1.181035,-0.813305
297,0.068637,1.107096,-0.77405
298,0.92574,0.613808,-0.613935
299,0.931855,-0.103865,-0.505916
300,0.743563,-0.59378,-0.596563
301,1.182057,-0.995756,-0.876383
302,0.846775,-1.465237,-0.432485
303,0.670634,-1.335117,-0.527361
304,-0.208648,-0.288176,-0.700863
305,-0.437491,-0.131642,-0.287448
306,-0.15912,0.22749,-0.164072
307,0.630166,2.010753,0.399578
308,0.236227,2.074145,0.656503
309,-0.620451,1.783329,-0.059526
310,-0.301734,1.947689,0.076588
311,0.265231,0.738012,0.091753
312,0.344466,0.65735,0.059033
313,0.436012,0.441065,0.442193
314,0.02672,0.209468,0.758831
315,-0.46469,-0.107351,0.711845
316,-0.973854,-0.790566,0.801272
317,-1.072119,-1.483855,1.036702
318,-1.191244,-1.831598,1.21122
319,-0.98764,-2.096685,0.562008
320,-0.014562,-0.575354,-1.404944
321,0.695848,-0.063396,-1.775909
322,1.237591,1.45276,-0.159024
323,-1.591542,1.521557,-1.278746
324,-1.522914,1.581253,-1.59897
325,-0.806491,-0.986276,2.241843
326,-0.641415,0.121749,0.910307
327,-0.501139,0.581044,0.743543
328,1.122838,2.031883,0.275314
329,1.050952,0.589032,0.247343
330,0.581068,0.765287,0.335451
331,-0.281477,1.151694,-0.660331
332,0.318968,0.837674,-0.871191
333,0.574545,0.598206,-0.730026
334,0.768494,0.078234,-0.383944
335,0.555273,-0.813946,-0.71141
336,0.712408,-1.135805,-0.868234
337,1.026622,-1.076966,-0.745625
338,0.663061,-1.520627,-0.392477
339,0.3743,-1.032799,-0.528514
340,-0.293492,-0.06753,-0.303667
341,-0.078525,0.635418,-0.437953
342,0.111008,0.869853,-0.079786
343,-0.110031,1.372365,0.82282
344,-0.621298,1.604285,-0.54715
345,-0.562615,2.117554,-0.387544
346,0.476415,0.652027,0.081133
347,0.383512,0.594176,0.205862
348,0.342147,0.501735,0.469616
349,-0.135536,0.268754,0.690756
350,-0.799547,-0.429666,0.651804
351,-0.90214,-0.80429,0.788011
352,-1.011688,-1.517482,1.060155
353,-1.094456,-1.863673,1.153734
354,-1.037589,-1.821544,0.713594
355,-0.441479,-0.863292,-0.316435
356,0.691126,0.418296,-0.654861
357,0.517071,0.912254,0.348586
358,-0.961117,-0.118848,0.584086
359,-0.510454,1.163546,1.667378
360,0.079336,0.860893,2.384062
361,-0.331882,-0.647376,0.686714
362,-0.047057,0.688604,0.847766
363,0.13611,0.858586,0.702031
364,0.456849,1.287946,0.279347
365,0.331788,1.082102,0.108756
366,0.343869,1.074787,0.076435
367,0.047703,1.027616,-1.049792
368,0.273119,0.793702,-0.555454
369,0.512577,0.662622,-0.392542
370,0.741446,-0.133298,-0.5462
371,1.241689,-1.104589,-0.780196
372,1.305963,-1.159249,-0.794854
373,0.867735,-1.43674,-0.503583
374,0.110195,-0.44133,-0.940586
375,-0.112781,-0.248665,-0.805858
376,-0.225575,-0.042281,0.008462
377,0.228741,0.788044,0.127461
378,0.406731,1.5348,0.371779
379,-0.593727,1.54623,0.673014
380,-0.639055,1.83994,-0.667507
381,-0.682774,1.609024,0.081428
382,0.319173,0.660892,0.154286
383,0.436494,0.518752,0.213189
384,0.192353,0.33884,0.511102
385,-0.212032,-0.098785,0.579284
386,-0.795136,-0.650942,0.533334
387,-0.870174,-1.259226,0.873065
388,-0.973306,-1.643054,1.099983
389,-1.025529,-1.891554,1.041135
390,-0.473696,-1.177245,0.171193
391,-2.10E-05,-0.356326,-0.750572
392,0.53512,-0.005291,-0.472183
393,-0.364279,0.349642,0.306996
394,-1.364913,1.144512,-3.077468
395,-0.28798,1.580605,2.636571
396,-0.481309,-0.249143,1.646055
397,-0.620669,-0.89499,0.900186
398,-0.162368,0.359462,0.703516
399,0.353078,2.049343,0.560514
400,0.815455,0.985414,0.06521
401,0.094622,0.875797,-0.053765
402,-0.076942,1.190845,-0.509508
403,0.192761,0.891909,-0.842821
404,0.66492,0.713016,-0.509019
405,0.966077,0.193069,-0.396461
406,0.911933,-0.73319,-0.699123
407,1.232852,-1.049374,-0.843893
408,1.137768,-1.145943,-0.810961
409,0.687302,-1.5241,-0.439495
410,-0.273385,-0.270768,-0.60185
411,-0.357586,-0.015711,-0.306384
412,-0.060226,0.532385,-0.382828
413,0.240125,2.12727,0.581121
414,-0.170589,1.744983,0.769127
415,-0.633294,1.539412,-0.012447
416,9.40E-05,1.226366,0.385534
417,0.095498,0.888529,0.319658
418,0.370452,0.49899,0.276715
419,0.31594,0.431249,0.515937
420,0.054674,0.244483,0.677201
421,-0.832491,-0.524408,0.689644
422,-1.148491,-1.120925,0.989704
423,-1.08062,-1.405271,1.044292
424,-1.150913,-2.094337,0.935323
425,-0.699094,-1.524507,-0.209547
426,-0.300842,-1.029929,-0.64594
427,0.892451,0.679555,-0.679379
428,0.291022,1.028669,-0.208053
429,-0.930716,0.356936,0.468722
430,0.236245,0.377509,2.864492
431,-0.118612,-0.263806,1.783344
432,-0.393587,-0.941274,1.246468
433,-0.175705,0.312579,0.797665
434,0.098067,2.031383,0.481894
435,0.659456,0.889268,-0.153703
436,-0.089861,0.937611,0.324991
437,-0.043504,0.925467,0.260367
438,0.045191,1.043339,-0.884298
439,0.794591,0.72539,-0.525715
440,0.969792,0.467325,-0.435887
441,0.780599,-0.557986,-0.538878
442,1.168268,-1.177185,-0.76299
443,1.220621,-1.140036,-0.78941
444,0.836935,-1.507315,-0.34786
445,-0.154414,-0.45616,-0.811995
446,-0.323678,-0.306992,-0.590501
447,-0.350943,-0.154066,0.008411
448,0.118481,0.566126,-0.106104
449,0.679708,2.479604,0.187215
450,-0.498721,1.80874,0.765434
451,-0.627575,1.488441,-0.38458
452,-0.219512,1.246319,0.189602
453,0.259667,0.66049,0.238645
454,0.427941,0.380254,0.186664
455,0.040629,0.306371,0.494025
456,-0.070564,0.051622,0.59645
457,-0.742064,-0.498079,0.573212
458,-1.048829,-1.456083,0.977121
459,-0.955695,-1.673225,1.055973
460,-0.868854,-2.119126,0.888879
461,-0.240854,-1.257118,0.065763
462,0.134309,-0.707411,-0.788321
463,0.892601,0.961456,-0.763928
464,-0.87448,0.391942,1.015582
465,-1.585524,0.354003,0.755025
466,-0.275591,0.570437,3.509581
467,-0.341759,-0.402764,1.308435
468,-0.520613,-0.940391,0.760952
469,-0.342608,0.866472,0.598068
470,0.22817,1.877906,0.750892
471,0.586987,1.2654,0.317692
472,0.353731,0.917033,0.091268
473,0.149834,0.987367,-0.51666
474,0.207142,1.051003,-0.786256
475,0.432287,0.551911,-0.516079
476,0.846495,0.326171,-0.453705
477,0.898656,0.020512,-0.600157
478,1.019399,-1.316355,-0.701014
479,1.063648,-1.240773,-0.621594
480,0.868749,-1.382354,-0.355884
481,-0.1354,-0.445428,-0.757748
482,-0.168969,-0.448437,-0.707182
483,-0.161601,-0.345736,-0.125026
484,0.109358,0.142309,0.031715
485,1.041211,2.948134,0.434077
486,0.361096,2.644109,0.676668
487,-0.717602,1.524855,-0.56473
488,0.089069,1.443867,0.204686
489,0.486344,0.691464,0.290916
490,0.267994,0.410755,0.292459
491,0.05321,0.336457,0.450925
492,-0.150902,0.098338,0.690254
493,-1.090419,-0.651218,0.676007
494,-1.17822,-0.932759,0.758034
495,-1.128872,-1.516198,0.935153
496,-0.845633,-1.981796,0.54549
497,-0.401208,-1.416422,0.170351
498,-0.021371,-0.771535,-0.750811
499,0.868837,0.645201,-0.649169
500,0.394436,0.683117,-0.107445
501,-1.358665,0.160194,0.523966
502,0.223593,1.55803,3.466103
503,0.216836,0.603877,2.45443
504,-0.775494,-1.783939,0.84593
505,-0.476956,0.633882,0.863908
506,-0.352462,1.594666,0.847644
507,0.597329,2.067403,0.517199
508,0.434084,0.760314,-0.446523
509,-0.163501,1.055987,-0.477857
510,-0.125637,0.874029,-0.7193
511,0.383528,0.556637,-0.456985
512,0.687324,0.368641,-0.408744
513,1.026548,-0.343097,-0.538725
514,1.413637,-1.096967,-0.762368
515,1.326706,-1.014328,-0.729914
516,0.794371,-1.50539,-0.415706
517,-0.109036,-0.608006,-0.695274
518,-0.327409,-0.378688,-0.592606
519,-0.084833,0.116352,-0.194682
520,0.635908,1.648015,0.032773
521,0.509508,3.000001,0.822469
522,-0.35249,1.808929,0.772592
523,-0.51731,1.636708,-0.299941
524,0.069595,0.88021,0.4572
525,0.549073,0.409554,0.167931
526,0.246679,0.381599,0.479527
527,0.22129,0.402765,0.49715
528,-0.365757,-0.155469,0.686585
529,-1.394227,-0.998138,0.985479
530,-1.412509,-1.689849,1.26817
531,-1.430017,-2.017996,1.258353
532,-1.05692,-2.201595,0.389124
533,0.162204,-0.731557,-1.084756
534,0.631754,-0.318205,-1.404181
535,1.139443,1.138054,-0.799879
536,-0.413763,0.15372,1.376835
537,-1.401667,-0.9324,0.850709
538,-2.377613,0.684003,-4.053045
539,1.075074,2.928328,3.137506
540,0.844197,0.221427,0.934022
541,-0.140874,-1.15605,0.378417
542,-0.325477,1.037471,0.786709
543,-0.667635,1.753184,1.100268
544,0.227692,1.092205,-0.454343
545,0.481526,1.163284,-0.445667
546,0.150877,0.725967,-0.748572
547,0.14008,0.638487,-0.507303
548,0.577775,0.487299,-0.451923
549,0.885424,-0.097501,-0.447282
550,1.202106,-1.339167,-0.708957
551,1.105668,-1.440274,-0.599269
552,0.889711,-1.595433,-0.364099
553,0.121311,-0.490561,-0.894496
554,-0.193472,-0.239426,-0.697564
555,-0.290286,-0.223973,-0.073596
556,0.3373,1.1523,0.047937
557,0.725538,3.043355,0.681451
558,-0.432853,1.647622,0.205184
559,-0.544669,1.505082,-0.358621
560,-0.383418,1.354015,-0.020277
561,0.098461,0.616807,0.18317
562,0.36753,0.459199,0.205592
563,0.261635,0.49531,0.388974
564,0.176226,0.239132,0.593808
565,-0.847751,-0.473984,0.610894
566,-1.419034,-1.215904,1.012264
567,-1.319704,-1.489677,1.193406
568,-1.026558,-2.174733,0.262171
569,-0.39433,-1.373099,-0.209195
570,0.326598,-0.527111,-1.205156
571,1.190764,1.709141,-0.922213
572,0.097722,0.949594,0.425988
573,-1.364214,-1.006345,1.50744
574,-1.242131,2.008607,-0.592916
575,0.509402,3.265566,2.673805
576,0.812119,0.826169,1.235625
577,-0.246689,-2.790073,0.664905
578,-0.203072,1.202967,0.748235
579,-0.131152,2.292537,0.964554
580,0.405594,1.285078,0.183229
581,0.262468,0.83625,-0.12941
582,0.027092,0.858318,-0.608854
583,0.016856,0.657434,-0.592371
584,0.265436,0.681478,-0.341082
585,0.377834,0.232441,-0.613417
586,0.430867,-0.729369,-0.796956
587,0.971524,-1.31564,-0.651883
588,1.038879,-1.440651,-0.361882
589,0.918965,-1.399226,-0.494733
590,0.104097,-0.679669,-0.704135
591,-0.189008,-0.599912,-0.550197
592,-0.206591,-0.43932,0.037273
593,0.163375,0.144557,0.147934
594,0.970278,2.109796,0.334995
595,-0.65238,2.10032,-0.165543
596,-0.990516,1.366963,-0.816378
597,-0.178541,1.270292,0.144939
598,0.342964,0.637721,0.2116
599,0.283269,0.606559,0.106052
600,-0.119959,0.441475,0.3775
601,-0.190691,-0.149577,0.428176
602,-0.496099,-0.262753,0.40522
603,-1.13061,-0.75129,0.680916
604,-1.626264,-1.599873,1.111673
605,-1.568885,-1.94715,1.01034
606,0.180818,-1.183627,-0.337482
607,0.765445,-0.278897,-1.203357
608,1.263362,0.269926,-0.702857
609,0.504079,0.685883,0.056224
610,-1.493752,0.041564,-0.196414
611,-0.957383,2.421709,-0.305508
612,-0.051863,1.531213,2.932767
613,-0.32493,-1.080758,0.698842
614,-0.435005,0.844558,0.61986
615,-0.328095,1.898719,0.610414
616,0.579383,1.520458,0.583183
617,0.545354,0.378113,-0.175223
618,-0.107573,0.789085,0.142357
619,-0.443145,0.842068,-0.527186
620,-0.040344,0.577564,-0.555322
621,0.666435,0.771958,-0.367836
622,0.941016,-0.064686,-0.648613
623,1.203443,-1.359667,-0.666442
624,1.259983,-1.269459,-0.665421
625,1.00986,-1.288273,-0.450209
626,0.44247,-0.917031,-0.763423
627,-0.095265,-0.684497,-0.608027
628,-0.236688,-0.500101,-0.055625
629,-0.000641,0.122643,-0.243175
630,0.563549,1.691143,0.274996
631,-0.367231,2.280385,0.879693
632,-1.002617,1.503708,-0.646887
633,-0.419812,1.592457,-0.160222
634,0.006192,1.114289,0.150844
635,0.364358,0.575019,0.135038
636,0.278498,0.538782,0.168642
637,0.184352,0.352988,0.434851
638,-0.221146,-0.049627,0.423136
639,-0.945047,-0.363922,0.461339
640,-1.466433,-1.265594,1.080261
641,-1.553025,-1.536956,1.230206
642,-1.526251,-2.149803,0.969709
643,-0.155093,-0.936795,-0.887547
644,0.196655,-0.636403,-1.632379
645,1.440973,0.592216,-1.291048
646,-0.532269,0.485743,1.243934
647,-1.253237,0.780488,1.179485
648,-0.575925,2.520607,-1.27286
649,-0.86193,-0.969453,0.843432
650,-0.934896,-1.074728,0.844852
651,-1.109621,-0.302866,0.793121
652,-0.265116,2.419592,0.526342
653,0.480817,1.778289,0.317392
654,0.644397,0.230762,0.184857
655,-0.140089,0.574235,0.085213
656,-0.042659,0.768043,-0.24504
657,0.216658,0.744725,-0.443238
658,0.809309,0.377798,-0.65861
659,0.513005,-0.503118,-0.886444
660,0.482933,-0.805953,-0.739904
661,0.596304,-0.92519,-0.700691
662,0.346227,-1.087989,-0.771282
663,0.114767,-0.997673,-0.621777
664,-0.112116,-0.830662,-0.142833
665,-0.112221,-0.296453,-0.226064
666,0.320562,1.014639,-0.442276
667,0.206483,2.98681,0.496398
668,-0.844533,1.460968,0.299392
669,-0.350468,1.160182,-0.395523
670,-0.413303,1.058382,0.143154
671,-0.333369,0.773789,0.16906
672,-0.072786,0.396419,0.176236
673,-0.026475,0.283352,0.109408
674,-0.171729,0.188006,0.244456
675,-0.531321,-0.23098,0.341961
676,-1.178562,-0.693725,0.440676
677,-1.630879,-1.153275,0.822401
678,-1.806049,-1.691221,0.672135
679,-0.734798,-1.606721,-0.247258
680,0.452454,-0.71051,-0.898918
681,1.537683,0.125376,-0.418919
682,1.262262,1.002627,-1.079015
683,-1.171231,0.037595,0.534621
684,-1.025637,2.727856,0.378168
685,-0.47025,0.147706,2.044684
686,-0.756857,-0.739195,0.998755
687,-1.038614,-0.502492,0.493585
688,-0.684469,1.663304,0.191181
689,-0.171511,2.681714,0.192722
690,0.556823,0.517571,-0.051538
691,-0.435609,0.376624,0.153494
692,-0.400619,0.352797,0.032996
693,-0.26858,0.390576,-0.025045
694,0.471962,0.72089,-0.081878
695,0.720482,0.528922,-0.203401
696,0.87888,-0.099528,-0.67175
697,0.254019,-0.499351,-0.951424
698,0.305935,-0.589188,-0.813973
699,0.304212,-0.671556,-0.934781
700,-0.149501,-0.67974,-0.534051
701,-0.328,-0.697356,-0.112658
702,-0.358932,-0.602908,0.104731
703,0.111977,1.633952,-0.343343
704,0.05505,1.658959,-0.306345
705,-0.496906,0.932064,0.600057
706,-0.234475,1.050192,-0.368587
707,0.232274,0.938017,0.254312
708,-0.327557,0.725071,-0.100567
709,-0.341764,0.440049,-0.171158
710,-0.416147,0.120164,-0.074344
711,-0.485711,-0.060058,0.105029
712,-0.537035,-0.415771,0.236305
713,-0.65464,-0.496391,0.256363
714,-1.058958,-0.832504,0.365578
715,-1.517318,-1.202021,0.369059
716,-1.351055,-1.541138,0.128009
717,-0.034785,-0.900337,-0.668646
718,1.025794,-0.081864,-0.415945
719,1.267199,0.249343,-0.159811
720,-0.229508,0.036387,-0.608878
721,-0.260847,2.318442,-1.825159
722,-0.650866,2.017326,1.407731
723,-1.251337,-0.735507,-0.859837
724,-1.306949,-0.657382,0.458158
725,-0.936855,0.493413,0.284298
726,0.079327,2.762449,0.177668
727,1.032378,0.797603,0.402117
728,0.88863,0.33517,-0.095294
729,0.257866,0.452217,-0.433218
730,0.04029,0.802188,-0.41415
731,0.302201,0.668199,-0.540924
732,0.970088,0.187969,-0.856785
733,0.901344,-0.425324,-0.693997
734,0.857341,-0.72746,-0.753816
735,0.575321,-0.64136,-0.976175
736,0.508806,-0.940564,-0.954567
737,0.290339,-0.997934,-0.84221
738,-0.496379,-0.579335,-0.748456
739,-0.573611,-0.369759,-0.208768
740,-0.347428,0.151375,-0.509032
741,0.406519,1.804979,-0.033463
742,-0.316608,2.437148,-0.047187
743,-0.67185,1.358421,0.222355
744,0.047915,1.270926,-0.031849
745,0.559236,0.8271,-0.332025
746,0.050342,0.854939,-0.285115
747,-0.105284,0.381333,-0.289958
748,-0.658208,-0.220873,0.135153
749,-0.663851,-0.210484,0.156534
750,-0.935872,-0.891228,0.433808
751,-1.148922,-1.061208,0.595816
752,-1.295609,-1.209318,0.508825
753,-1.347371,-1.658262,0.192991
754,-0.427678,-1.209255,-0.458469
755,0.709513,-0.311184,-1.694168
756,0.924407,0.652028,0.115986
757,0.108771,1.420068,-0.82592
758,0.227696,2.393145,0.043975
759,-1.01209,-0.342294,0.532939
760,-1.306052,-0.502657,-0.049799
761,-0.884279,-0.000172,0.241352
762,0.080387,1.400404,0.131794
763,1.308198,0.998829,-0.099847
764,1.015739,0.597867,-0.036084
765,0.07325,0.561529,0.080068
766,0.057804,0.632538,-0.465888
767,0.729126,1.068175,-0.727692
768,1.277782,0.820089,-0.737301
769,1.125414,0.136973,-1.065382
770,0.792616,-0.267304,-0.860325
771,0.575506,-0.626982,-0.873139
772,0.731115,-0.740347,-0.890947
773,0.912971,-1.222181,-1.098001
774,0.703496,-1.482798,-0.698951
775,-0.412704,-0.272239,-0.919476
776,-0.555634,-0.1191,-0.563877
777,-0.304374,0.776554,-0.252154
778,0.285853,1.892587,-0.008238
779,0.424482,2.6442,-0.001408
780,-0.766008,1.447725,0.169505
781,0.66296,0.823959,0.211072
782,0.741301,0.841477,-0.007625
783,0.516076,0.461481,-0.199763
784,0.223617,0.301351,0.143228
785,-0.071095,0.313781,0.378037
786,-0.806302,-0.604247,0.615247
787,-1.117607,-1.282844,0.743794
788,-1.189218,-1.394729,0.805872
789,-1.400373,-1.954741,0.75265
790,-0.589362,-1.105281,-0.108397
791,-0.206664,-0.743442,-0.953204
792,0.955374,0.269305,-0.399014
793,-0.172933,0.934591,-1.028013
794,-0.658793,1.952782,-1.683759
795,-0.168792,1.631516,1.301275
796,-0.97036,-1.148087,0.245505
797,-0.999159,-0.88764,0.269518
798,-0.543024,0.427203,0.368697
799,1.454487,1.518997,0.118063
800,1.453376,0.730665,0.053424
801,0.382342,0.770352,0.161569
802,0.033021,0.652364,-0.1837
803,-0.006931,0.768046,-0.475487
804,0.676915,0.880764,-0.636997
805,1.20467,0.366207,-0.788944
806,0.917409,-0.286427,-0.711881
807,0.518032,-0.8614,-0.619327
808,0.880981,-0.984532,-0.647446
809,0.987722,-1.196303,-0.771273
810,0.42298,-1.233226,-0.531121
811,0.020312,-0.640244,-0.425645
812,0.012506,0.075631,-0.518892
813,0.356418,0.876717,-0.572573
814,0.193621,1.364422,0.230533
815,-0.527241,0.779299,0.263662
816,-0.340205,1.779719,-0.523389
817,0.318438,1.603955,0.254528
818,0.443509,0.68237,-0.158796
819,0.370551,0.667203,0.019534
820,0.474536,0.48711,0.077302
821,0.039464,0.437161,0.309615
822,-0.538546,-0.032338,0.427755
823,-0.88995,-0.76395,0.5275
824,-0.977786,-1.298053,0.826617
825,-1.085272,-1.575103,0.983684
826,-1.068583,-1.900627,0.609358
827,-0.369506,-1.159849,-0.499966
828,0.579628,-0.471413,-1.210884
829,0.716443,0.397695,0.306349
830,-0.292125,0.022157,0.088258
831,-1.454775,1.697495,-1.217216
832,0.017939,1.313149,2.392104
833,-0.376517,-0.219157,1.089599
834,-0.402929,0.114299,0.542978
835,-0.018234,0.7381,0.124923
836,0.458484,1.277021,0.191266
837,0.686478,1.093867,0.260151
838,0.338058,0.763329,0.077301
839,0.082579,0.735382,-0.339465
840,0.30804,0.741693,-0.602406
841,0.869897,0.607982,-0.672271
842,1.084683,0.440457,-0.706523
843,0.75737,-0.754903,-0.727373
844,1.111708,-1.163053,-0.696808
845,1.226706,-1.083321,-0.853271
846,0.77815,-1.433694,-0.381661
847,0.255555,-0.81963,-0.650452
848,-0.132448,-0.319674,-0.665258
849,-0.129945,-0.057485,-0.283753
850,0.383825,0.65053,-0.110845
851,1.031842,2.341617,0.230902
852,0.469328,2.073019,0.532635
853,-0.593795,1.869118,-0.652567
854,0.306802,1.053053,0.288908
855,0.33788,0.746892,0.098736
856,0.30831,0.561704,0.06052
857,0.379452,0.318434,0.190573
858,0.239222,0.187818,0.418066
859,-0.687663,-0.39043,0.501424
860,-1.204934,-1.04423,0.687212
861,-1.271626,-1.569218,0.939361
862,-1.201775,-2.140667,0.787605
863,-0.444577,-1.461085,-0.285086
864,0.169596,-0.728097,-1.217876
865,1.130072,0.49729,-0.580917
866,0.649998,1.431896,-0.784564
867,-1.28768,2.013335,-0.584341
868,-0.896752,-0.41446,1.314352
869,-1.034133,-1.110622,1.072542
870,-0.949606,-0.586013,0.737108
871,-0.543896,0.954055,0.154246
872,0.767697,2.217409,0.440523
873,1.21828,0.628155,0.154802
874,0.153441,0.834158,0.01999
875,-0.027732,0.846999,-0.372413
876,0.302798,0.958987,-0.554393
877,0.935687,0.372728,-0.644863
878,1.004504,0.219745,-0.606564
879,0.8005,-0.299222,-0.56124
880,0.844381,-1.062888,-0.788909
881,0.965497,-0.883326,-0.818319
882,0.620999,-1.291946,-0.40728
883,0.172187,-0.711257,-0.780378
884,-0.154015,-0.378185,-0.87507
885,-0.147091,-0.072237,-0.420728
886,0.251922,0.601121,-0.232537
887,0.700934,1.927976,0.302251
888,0.175141,1.731446,0.615564
889,-0.479614,2.288902,-0.693249
890,0.192008,1.668229,0.039971
891,0.453217,0.635054,0.000505
892,0.281792,0.563218,0.089701
893,0.248902,0.511287,0.278379
894,-0.133936,0.255383,0.420096
895,-0.767766,-0.279652,0.37466
896,-1.082417,-1.257451,0.584156
897,-1.033316,-1.399894,0.635641
898,-0.980048,-1.788924,0.611468
899,-0.521163,-1.695922,0.062271
900,-0.082411,-0.822731,-0.833699
901,0.499833,-0.024423,-0.506089
902,0.386236,0.049487,0.613325
903,-0.920558,0.424439,-1.492395
904,-0.08355,2.07547,0.873103
905,-0.51809,0.261746,1.215891
906,-1.106432,-0.736372,0.598831
907,-0.847425,-0.074763,0.583412
908,-0.286653,1.176657,0.153775
909,1.159813,2.093261,0.449316
910,1.338982,0.691138,0.081003
911,0.285056,0.753985,-0.345161
912,-0.025374,0.980759,-0.937343
913,0.364235,0.528451,-0.750719
914,0.729449,0.348854,-0.555948
915,0.818927,-0.220596,-0.512172
916,0.823497,-1.083225,-0.90655
917,1.181782,-1.177703,-0.93511
918,0.890462,-1.352411,-0.549674
919,0.003466,-0.620041,-0.838161
920,-0.265126,-0.329202,-0.7724
921,-0.142784,0.134745,-0.574839
922,0.27319,0.841349,-0.328861
923,0.410861,1.72883,0.280061
924,-0.372558,1.026644,0.441019
925,-0.26905,2.248079,-0.468191
926,0.465492,1.178199,0.266303
927,0.354586,0.790747,-0.034076
928,0.380145,0.646808,0.007206
929,0.373547,0.443239,0.343777
930,-0.043658,0.167098,0.432302
931,-0.667635,-0.337637,0.459585
932,-1.161798,-1.182265,0.837989
933,-1.26753,-1.594252,1.173524
934,-1.361665,-2.194766,0.985754
935,-1.077332,-1.796686,-0.313991
936,-0.307806,-0.787437,-0.944537
937,0.795111,0.363984,-0.127618
938,0.69,0.670256,-0.161309
939,-0.746129,0.125356,0.055085
940,-0.289091,1.543061,0.959532
941,0.719714,1.138065,2.584164
942,0.019874,-0.826048,0.747444
943,-0.232149,0.14047,0.520923
944,-0.049235,1.054707,0.502623
945,0.61687,1.832424,0.518242
946,0.203663,0.812869,-0.042463
947,0.182929,0.962812,0.158041
948,-0.265033,1.016163,-0.673098
949,0.598954,0.750786,-0.574553
950,1.165553,0.533747,-0.668706
951,1.165318,-0.225959,-0.679725
952,0.997542,-0.994339,-0.560177
953,1.189196,-0.995749,-0.75577
954,1.092712,-1.285809,-0.712478
955,0.714802,-1.51883,-0.486092
956,-0.080164,-0.398913,-0.567415
957,-0.167184,0.013422,-0.38508
958,0.260407,0.822684,-0.44682
959,0.405513,2.248467,0.303323
960,-0.092303,1.936917,0.525811
961,-0.417103,1.825752,-0.575354
962,0.119542,1.388183,0.429615
963,0.317265,0.717133,0.04328
964,0.412472,0.521622,0.030474
965,0.267697,0.478807,0.21887
966,-0.033048,0.299413,0.437284
967,-0.528193,-0.125544,0.486754
968,-1.067585,-0.904328,0.566821
969,-0.96338,-1.409779,0.93584
970,-1.097401,-1.954464,1.020487
971,-1.033687,-2.132733,0.321872
972,-0.371288,-1.155676,-0.595001
973,0.498609,-0.332485,-0.726967
974,1.00147,0.676876,-0.438208
975,-0.804191,0.890741,-0.928181
976,-1.111643,1.844759,-1.552068
977,0.033247,-0.135261,2.114195
978,-0.608165,-0.884907,0.745155
979,-0.721845,-0.270353,0.54863
980,-0.281068,0.838981,0.112094
981,0.918955,1.759065,0.435179
982,0.483521,0.773924,0.172245
983,0.13919,0.926238,-0.064427
984,-0.241061,1.037593,-0.713229
985,0.642962,0.558136,-0.562401
986,0.774864,0.472965,-0.501716
987,0.845549,-0.309221,-0.565098
988,0.811967,-1.052064,-0.718929
989,1.039356,-1.150728,-0.795857
990,0.986257,-1.163608,-0.64216
991,0.706491,-1.326719,-0.57394
992,0.242207,-0.681675,-0.865709
993,-0.270422,-0.079868,-0.422933
994,0.097031,0.489103,-0.496044
995,0.357998,1.014906,-0.120451
996,0.261004,2.048049,0.534232
997,-0.447941,1.834465,-0.574181
998,0.195705,1.655433,0.237349
999,0.320916,0.615357,0.092105
1000,0.367362,0.497966,-0.04303
1001,0.34155,0.417543,0.233338
1002,-0.050402,0.325908,0.50767
1003,-0.472982,-0.097332,0.468216
1004,-0.982925,-1.036219,0.583606
1005,-0.976505,-1.547215,0.894779
1006,-0.97467,-1.966189,0.996876
1007,-0.649773,-1.550003,-0.068011
1008,-0.237694,-1.043963,-0.730461
1009,0.690164,-0.35086,-1.007732
1010,0.922719,0.74094,-0.366637
1011,-0.995468,1.229447,-0.72291
1012,-1.424217,2.086371,-1.293053
1013,-0.387157,-0.531012,2.28197
1014,-0.763866,-0.96999,0.808579
1015,-0.680348,-0.158741,0.537423
1016,-0.061339,1.172562,0.142698
1017,1.313058,1.783689,0.279245
1018,0.99427,0.473642,0.200964
1019,0.222074,0.808696,0.094755
1020,-0.077652,0.970352,-0.749409
1021,0.511289,0.743429,-0.668968
1022,0.857433,0.416733,-0.659963
1023,0.966716,0.097238,-0.56447
1024,0.724331,-0.767378,-0.735209
1025,1.083744,-1.150136,-0.791249
1026,1.048899,-1.173749,-0.772947
1027,0.493545,-1.24102,-0.58716
1028,0.03437,-0.570412,-0.77212
1029,-0.252612,-0.2655,-0.634011
1030,-0.063604,0.098561,-0.290052
1031,0.147122,0.478444,-0.115067
1032,0.817739,2.29731,0.310347
1033,-0.667705,1.363338,0.038083
1034,-0.812437,1.626462,-0.503545
1035,0.586092,0.478238,0.309476
1036,0.432432,0.556127,-0.131906
1037,0.303289,0.388893,0.128106
1038,0.18174,0.213132,0.34735
1039,-0.219509,-0.082376,0.407689
1040,-0.653776,-0.263083,0.409247
1041,-1.265537,-1.296656,0.798641
1042,-1.280193,-1.827643,0.929092
1043,-1.070217,-2.021447,0.762498
1044,-0.211887,-1.521294,-0.212497
1045,1.022346,-0.055931,-0.729435
1046,1.252246,0.639537,-0.200143
1047,-0.999703,-0.361753,0.18343
1048,-1.919868,0.532977,-2.617594
1049,-1.927909,1.295126,-1.133376
1050,0.199892,0.655051,1.119432
1051,-0.087497,-0.900047,0.461443
1052,-0.116015,0.089434,0.497166
1053,0.254888,1.723271,0.822808
1054,0.489492,1.046721,0.284044
1055,0.434548,0.787803,-0.434882
1056,0.169554,1.081329,-0.447783
1057,0.012028,0.787769,-0.902729
1058,0.270446,0.620274,-0.561489
1059,0.929377,0.428535,-0.60018
1060,1.137667,-0.414695,-0.677784
1061,1.284053,-1.183874,-0.741138
1062,1.297086,-1.260046,-0.919722
1063,0.848283,-1.521986,-0.427029
1064,0.005405,-0.497416,-0.638172
1065,-0.152237,-0.212792,-0.390096
1066,0.075558,0.278689,-0.683642
1067,0.447424,1.53021,0.002946
1068,-0.28807,1.963322,0.627792
1069,-0.539887,1.39583,-0.475842
1070,-0.091444,1.657923,-0.042121
1071,0.164443,1.066432,0.267298
1072,0.297541,0.53907,0.159224
1073,0.433734,0.409047,0.121212
1074,0.136099,0.371109,0.317963
1075,-0.478525,-0.24889,0.394816
1076,-0.934801,-0.937059,0.537905
1077,-0.925158,-1.32302,0.790557
1078,-0.936173,-1.947406,1.086365
1079,-0.877819,-2.179366,0.816134
1080,-0.649829,-1.655653,-0.183884
1081,0.4249,-0.382348,-0.813465
1082,0.910404,0.133806,-0.503178
1083,0.531441,0.905847,-0.344652
1084,-1.825834,1.413176,-2.949239
1085,-1.008423,1.900212,-1.116719
1086,0.372767,0.936133,2.207715
1087,-0.594507,-1.213084,0.674525
1088,-0.682206,-0.881936,0.588222
1089,-0.426245,0.687677,0.459943
1090,0.984011,1.618814,-0.085464
1091,0.597458,0.553335,0.00964
1092,0.156623,0.839686,-0.378705
1093,0.009037,0.867531,-0.79467
1094,0.351369,0.627284,-0.570377
1095,0.929448,0.439568,-0.590338
1096,0.885579,-0.858407,-0.762437
1097,1.220924,-1.257609,-0.821672
1098,1.283675,-1.240733,-0.96997
1099,0.899398,-1.385283,-0.386704
1100,0.478795,-0.827485,-0.624992
1101,-0.032003,-0.466444,-0.362826
1102,0.191502,0.228468,-0.649428
1103,0.710768,1.574384,-0.17147
1104,-0.117539,1.868445,0.676087
1105,-0.628145,1.260292,-0.30147
1106,-0.140587,1.857294,-0.263642
1107,0.278101,1.066643,0.207439
1108,0.471689,0.519368,0.216583
1109,0.661019,0.444233,0.020759
1110,0.135458,0.469023,0.408152
1111,-0.351756,0.15632,0.530946
1112,-0.906769,-0.457243,0.532404
1113,-1.048633,-1.320186,0.840575
1114,-0.902599,-1.631461,1.164247
1115,-1.061928,-2.094798,1.036736
1116,-0.957531,-1.858131,-0.079566
1117,-0.23768,-0.817117,-1.267323
1118,0.846501,0.255182,-1.135179
1119,-0.051231,0.173112,0.555011
1120,-1.375525,-0.249731,-0.093495
1121,-1.806721,1.566561,-3.552391
1122,-0.181051,2.258408,-0.192528
1123,-0.56872,-1.371371,0.266984
1124,-0.785863,-0.9925,0.77938
1125,-0.577387,-0.261158,0.750166
1126,0.361555,2.544714,0.627796
1127,1.06019,2.374543,-0.061431
1128,0.750649,0.802962,-0.162156
1129,0.025592,0.916866,-0.404692
1130,0.089182,1.160608,-0.498654
1131,0.606403,0.892268,-0.610108
1132,0.922988,0.200001,-0.734582
1133,0.784234,-0.24075,-0.794788
1134,0.595634,-1.118627,-0.602319
1135,1.078672,-1.347063,-0.645655
1136,0.995327,-1.320613,-0.518809
1137,0.407593,-0.726754,-0.830019
1138,0.023195,-0.620012,-0.571086
1139,-0.0867,-0.516784,-0.441155
1140,0.087833,-0.230296,-0.015576
1141,1.442987,2.659622,-0.128631
1142,1.177678,3.614248,0.184035
1143,-0.287799,2.446373,0.36226
1144,-0.478396,1.498528,-0.509904
1145,0.371745,0.883158,0.108437
1146,0.435264,0.566858,0.059906
1147,0.163521,0.390271,0.08781
1148,0.206666,0.214695,0.256074
1149,0.080508,-0.250351,0.512573
1150,-0.780428,-0.610836,0.626439
1151,-1.549628,-1.057577,0.988421
1152,-1.732509,-1.686659,1.267583
1153,-0.788618,-1.996035,0.21746
1154,0.575867,-1.085656,-0.824829
1155,1.652742,0.026936,-1.17277
1156,1.088064,0.913249,-0.850505
1157,-1.260222,-0.390429,1.169653
1158,-2.311679,1.092548,-3.583444
1159,-0.380043,1.137936,3.128756
1160,-0.128772,0.193363,1.101506
1161,-0.694538,-0.466602,0.504973
1162,0.048176,0.841919,0.486682
1163,0.360716,1.439538,0.749766
1164,0.556495,0.673497,0.114908
1165,0.286162,0.812243,-0.086479
1166,-0.086946,0.919414,-0.467031
1167,-0.056875,0.977375,-0.772916
1168,0.844024,0.72463,-0.648942
1169,1.068927,0.615516,-0.646522
1170,0.903454,-0.706247,-0.628435
1171,1.116555,-1.291223,-0.74054
1172,1.246128,-1.213818,-0.813271
1173,0.952118,-1.467284,-0.496838
1174,0.35122,-0.533999,-0.890769
1175,-0.124069,-0.142419,-0.481869
1176,-0.077115,0.053461,-0.425224
1177,0.35733,0.888838,-0.000364
1178,0.575885,1.813825,0.271291
1179,-0.020835,2.224092,0.685248
1180,-0.417597,1.644818,-0.395422
1181,0.021254,1.279705,-0.058632
1182,0.440601,0.696761,0.092562
1183,0.57372,0.381072,0.14903
1184,0.284105,0.314075,0.407314
1185,-0.10163,0.039412,0.447165
1186,-0.967522,-0.661493,0.61215
1187,-1.211703,-1.314907,0.885943
1188,-1.28541,-1.770791,1.190383
1189,-1.277417,-2.257213,0.949019
1190,-0.85127,-1.515632,-0.175512
1191,-0.250934,-0.539059,-1.466949
1192,0.83119,0.495247,-1.548362
1193,0.958559,1.416178,-0.124916
1194,-1.038079,1.550409,0.480966
1195,0.029054,1.005774,0.995859
1196,-0.733116,-0.963078,1.137983
1197,-0.861925,-1.310306,0.796738
1198,-0.846728,-0.093344,0.68229
1199,-0.263432,2.300801,0.179546
1200,1.341998,2.051147,0.155915
1201,0.990528,0.416448,0.254335
1202,0.018732,0.835033,-0.44839
1203,-0.087647,1.100578,-0.680761
1204,0.751356,0.624778,-0.687235
1205,1.129621,0.453376,-0.583602
1206,0.911804,-0.372979,-0.656518
1207,0.775839,-1.195963,-0.7488
1208,1.152383,-1.251242,-0.809383
1209,0.758971,-1.453934,-0.329529
1210,0.066711,-0.511321,-0.797779
1211,-0.222721,-0.223924,-0.402285
1212,0.079134,0.295957,-0.604441
1213,0.503123,1.42377,-0.027436
1214,0.254462,1.771069,0.47685
1215,-0.465401,1.423194,0.147183
1216,-0.176103,1.910013,-0.026839
1217,0.557812,0.86523,0.108151
1218,0.468278,0.6103,0.054517
1219,0.432075,0.431294,0.109809
1220,0.169993,0.508762,0.26657
1221,-0.332155,0.22062,0.422129
1222,-0.955082,-0.526993,0.519108
1223,-1.104225,-0.99225,0.655912
1224,-1.081661,-1.65061,1.273366
1225,-1.171584,-2.053302,0.802067
1226,-0.804512,-1.686863,-0.359947
1227,0.196423,-0.524083,-1.325978
1228,0.817337,0.03232,0.132911
1229,0.537611,0.328796,0.048744
1230,-1.147754,2.179658,-3.00381
1231,0.517801,1.479408,2.658431
1232,-0.744998,-1.006772,0.827495
1233,-0.724458,-0.798211,0.798035
1234,-0.611068,0.083915,0.424165
1235,0.38631,2.042063,0.04179
1236,1.348248,1.77041,0.296171
1237,0.690978,0.651411,0.287147
1238,-0.044343,0.81212,-0.561755
1239,0.048085,0.984867,-0.786707
1240,0.620219,0.789432,-0.789027
1241,0.80138,0.409522,-0.626439
1242,0.571089,-0.582929,-0.712238
1243,0.796065,-1.435622,-0.804082
1244,1.120277,-1.351935,-0.837047
1245,0.820472,-1.361055,-0.36718
1246,0.357402,-0.620589,-0.76055
1247,-0.097468,-0.2467,-0.766763
1248,-0.128988,-0.27092,-0.115618
1249,0.199963,0.221261,-0.175216
1250,0.811526,1.831197,0.064937
1251,0.050924,1.717921,0.435105
1252,-0.844105,1.553914,-0.41165
1253,0.077788,1.27244,0.32494
1254,0.426474,0.580626,0.121771
1255,0.278204,0.543617,0.11002
1256,0.267499,0.425718,0.177746
1257,0.114973,0.303587,0.420394
1258,-0.719445,-0.57264,0.559167
1259,-1.06999,-1.257418,0.735868
1260,-1.077217,-1.573561,0.990834
1261,-0.892667,-1.858724,0.874582
1262,-0.433483,-1.286622,-0.028894
1263,0.013588,-0.637767,-1.001278
1264,0.842951,0.228964,-0.384477
1265,0.857205,0.606346,-0.020383
1266,-1.154384,-0.734337,-0.059744
1267,-2.029886,0.88894,-2.619964
1268,-1.00527,2.377079,-0.164529
1269,0.920508,2.124084,1.420531
1270,-0.096714,-1.583267,0.918131
1271,0.089315,-0.550107,0.674914
1272,0.209531,1.731031,0.843603
1273,0.742927,1.789444,-0.089438
1274,0.304397,0.597665,-0.282154
1275,0.163489,0.871305,-0.476652
1276,-0.032983,0.550212,-0.755305
1277,0.154931,0.620705,-0.497211
1278,0.596269,0.131437,-0.595219
1279,0.794915,-0.905047,-0.795059
1280,1.306929,-1.345823,-0.72674
1281,1.123105,-1.28945,-0.489768
1282,0.92873,-1.309887,-0.563785
1283,0.081232,-0.656054,-0.876161
1284,-0.151561,-0.426976,-0.550711
1285,-0.109978,-0.312618,-0.089484
1286,0.197476,0.158294,-0.018833
1287,0.981105,2.179174,0.260256
1288,0.728549,3.203393,0.206212
1289,-0.878303,1.360333,-0.522341
1290,-0.053192,1.219759,0.477448
1291,0.754735,0.637235,0.245656
1292,0.536562,0.525941,0.116776
1293,0.164446,0.272303,0.272741
1294,0.137919,0.279554,0.385324
1295,-0.966734,-0.12357,0.494828
1296,-1.477297,-1.013148,0.527349
1297,-1.226555,-1.403932,0.788568
1298,-1.058765,-1.965629,0.985258
1299,-0.624125,-1.616379,0.01662
1300,0.14453,-0.56321,-1.19609
1301,0.509707,-0.077158,-0.67687
1302,0.55308,0.511338,-0.159913
1303,-0.752488,3.300744,-2.406308
1304,0.120317,2.348631,1.123561
1305,-0.718239,-0.886429,1.224539
1306,-0.820634,-0.253897,0.968136
1307,-0.77265,0.12392,0.674999
1308,-0.251437,1.583525,0.242183
1309,1.394627,0.992985,0.14229
1310,1.234403,0.576232,0.047784
1311,-0.073217,0.939876,-0.601689
1312,0.259841,0.801275,-0.602492
1313,0.665012,0.586468,-0.641233
1314,1.048048,0.276996,-0.579388
1315,0.711193,-0.586734,-0.616845
1316,0.755035,-1.315072,-0.788251
1317,1.019818,-1.073838,-0.795713
1318,0.742106,-1.331376,-0.359427
1319,0.527045,-1.111632,-0.59318
1320,-0.239221,-0.328807,-0.639352
1321,-0.190834,-0.016332,-0.372721
1322,0.501528,1.333865,-0.008492
1323,0.403026,1.885454,0.362626
1324,-0.391257,1.427811,0.174423
1325,-0.284261,1.840599,-0.369904
1326,0.265823,1.407661,0.238137
1327,0.517428,0.706592,0.129492
1328,0.472184,0.625346,-0.016199
1329,0.275502,0.505904,0.26339
1330,-0.078126,0.331142,0.4313
1331,-0.708141,-0.233,0.491752
1332,-1.172434,-1.154718,0.793819
1333,-1.082212,-1.489951,1.081049
1334,-1.124803,-1.952199,1.042131
1335,-1.059039,-1.735027,-0.069991
1336,-0.435777,-0.864559,-0.79382
1337,0.365819,-0.330099,-0.914314
1338,0.800402,0.538449,-0.071352
1339,-0.772947,0.002988,0.25837
1340,-1.547434,1.968461,-2.886276
1341,0.442646,1.046031,2.418245
1342,-0.215339,-0.618482,0.924773
1343,-0.531238,-0.820359,0.59599
1344,-0.402222,0.452003,0.602662
1345,0.590524,1.694907,-0.083299
1346,0.13788,0.63652,-0.081294
1347,0.18189,0.883969,0.201592
1348,0.039906,1.119765,-0.570917
1349,0.601015,0.764617,-0.426018
1350,0.972383,0.715798,-0.517252
1351,1.202328,-0.191647,-0.661977
1352,1.080197,-0.730013,-0.632862
1353,1.143535,-1.235387,-0.562753
1354,1.057219,-1.141699,-0.672147
1355,0.855018,-1.301525,-0.46255
1356,0.181084,-0.862474,-0.635586
1357,-0.314247,-0.250928,-0.645383
1358,-0.339531,-0.137731,-0.208731
1359,0.102714,0.388076,-0.246126
1360,0.789934,2.060765,0.145572
1361,0.675002,2.47398,0.343409
1362,-0.521332,1.419743,0.017208
1363,0.391637,1.175466,0.208124
1364,0.428738,0.75255,-0.039988
1365,0.362406,0.495379,-0.00355
1366,0.262952,0.313362,0.270305
1367,0.074875,0.113034,0.44588
1368,-0.808778,-0.327363,0.469217
1369,-1.100879,-0.898752,0.486784
1370,-1.186113,-1.346462,0.821366
1371,-1.283378,-1.874762,1.125976
1372,-1.153003,-2.088717,0.242675
1373,-0.38794,-0.9606,-1.057925
1374,0.578899,-0.289039,-1.287868
1375,1.318298,0.830409,0.174083
1376,-0.543457,-0.13573,0.645466
1377,-1.52638,1.888312,-3.404286
1378,0.741403,1.826729,2.676833
1379,-0.32712,-0.805191,0.884168
1380,-0.532867,-1.100092,0.67136
1381,-0.472551,0.195803,0.530895
1382,0.010416,2.194715,0.465797
1383,1.140396,1.322673,-0.332726
1384,0.611503,0.611137,0.169237
1385,0.098888,0.81727,-0.528334
1386,0.1402,0.806827,-0.581238
1387,0.735599,0.492819,-0.585564
1388,1.054529,0.257023,-0.566375
1389,0.778293,-0.506941,-0.627612
1390,0.889678,-1.303077,-0.677824
1391,0.948811,-1.24504,-0.610249
1392,0.754976,-1.384089,-0.39079
1393,0.007328,-0.486223,-0.853889
1394,-0.22704,-0.38589,-0.803049
1395,-0.24488,-0.377357,-0.322351
1396,0.43871,0.491269,-0.251601
1397,0.789718,1.559278,0.07294
1398,0.966014,2.628649,0.394745
1399,-0.530959,1.877152,-0.80687
1400,-0.418309,1.785655,-0.031778
1401,0.478252,0.809802,0.132311
1402,0.341937,0.629675,0.139828
1403,0.317026,0.491809,0.216999
1404,-0.028528,0.381033,0.410414
1405,-0.634299,-0.174932,0.291138
1406,-1.23401,-0.998271,0.488722
1407,-1.235212,-1.441646,0.788943
1408,-1.06159,-1.998844,1.110183
1409,-0.772225,-1.90834,0.364448
1410,-0.360645,-0.959146,-0.592188
1411,0.293545,-0.447292,-1.180549
1412,1.181855,0.679209,-0.149949
1413,0.154642,0.162248,0.615877
1414,-1.229431,-0.589756,0.062272
1415,-1.407151,2.798112,-3.347774
1416,0.745126,2.01185,2.532863
1417,-0.50011,-1.438734,1.038372
1418,-0.669504,-1.318636,0.766662
1419,-0.629759,0.573976,0.31246
1420,0.200028,2.932034,0.307017
1421,1.02132,1.044308,-0.052216
1422,0.832688,0.502421,0.017364
1423,0.17602,0.788988,-0.670764
1424,0.144892,0.80902,-0.5463
1425,0.554676,0.636679,-0.714737
1426,0.871713,0.25446,-0.760405
1427,0.755383,-0.634043,-0.705133
1428,0.901865,-1.432886,-0.590936
1429,1.084749,-1.525678,-0.741962
1430,0.825189,-1.44056,-0.321863
1431,0.378116,-0.742099,-0.69325
1432,-0.046059,-0.544312,-0.709149
1433,0.256558,0.12048,-0.50175
1434,0.525126,0.681851,-0.341901
1435,-0.027388,1.926204,0.492466
1436,-0.541287,1.706836,0.161012
1437,-0.677011,1.901838,-0.623564
1438,0.0993,1.115636,0.141664
1439,0.591074,0.628241,0.090536
1440,0.497467,0.473608,0.017828
1441,0.259886,0.343762,0.174529
1442,-0.059366,0.312442,0.268778
1443,-0.781712,-0.323801,0.291638
1444,-1.25736,-1.161656,0.736313
1445,-1.213208,-1.513541,1.003417
1446,-1.18512,-1.750773,1.132469
1447,-0.839235,-1.818089,0.051446
1448,-0.256671,-0.902841,-0.932883
1449,0.641521,-0.380568,-0.935519
1450,1.257849,0.885445,-0.247931
1451,-0.355906,-0.065489,0.957712
1452,-1.440343,0.086385,-1.31684
1453,-0.200937,3.041732,0.552967
1454,0.579212,2.871395,2.821193
1455,-0.602677,-2.053753,0.864166
1456,-0.480608,-0.876428,0.729691
1457,-0.438352,0.984136,0.449567
1458,0.536702,3.104888,0.155783
1459,0.830924,0.503665,0.103581
1460,0.279171,0.500188,-0.036295
1461,-0.064455,0.743578,-0.584382
1462,0.258087,0.812332,-0.368685
1463,0.599958,0.654142,-0.683949
1464,0.805883,0.153255,-0.693095
1465,0.635682,-0.55826,-0.647115
1466,0.654704,-1.298213,-0.489186
1467,0.81833,-1.531487,-0.618182
