,userAcceleration.x,userAcceleration.y,userAcceleration.z
0,-0.541472,-0.911664,1.440703
1,-1.864353,3.711884,1.182709
2,-1.206626,0.376706,0.431704
3,-0.681117,-0.308812,0.68199
4,-0.413381,-0.814279,0.928698
5,-0.193369,1.315544,1.832935
6,0.140863,1.419068,1.625659
7,0.421552,1.520818,1.014695
8,0.396654,1.614784,0.158186
9,0.017344,1.632451,-0.835115
10,-0.909482,0.711353,-2.60415
11,0.05098,0.548635,-0.840471
12,0.229815,0.177438,-0.554446
13,0.797616,-0.767244,-1.262089
14,0.792583,-0.624775,-1.096283
15,0.654469,-0.586926,-0.838767
16,0.377996,-0.947649,-0.272734
17,0.208141,-1.080884,-0.251554
18,0.023406,-0.93878,-0.268161
19,-0.320445,-0.736002,-0.220136
20,-0.281314,-0.51556,0.321695
21,-0.114937,-0.171111,0.736819
22,0.066948,1.790088,0.47717
23,-0.31248,3.445589,0.445102
24,-0.341793,2.401328,0.720273
25,-0.798163,1.968282,-0.08426
26,-0.190805,0.864307,-0.051975
27,0.312513,0.646843,0.407821
28,0.669987,-0.053635,0.664853
29,-0.016012,-0.482124,0.850834
30,-0.283103,-0.658245,0.884472
31,-0.737112,-1.249448,0.856936
32,-0.563119,-1.312037,0.80013
33,-0.574479,-1.327706,0.7574
34,-0.206825,-1.457013,0.6765
35,0.00392,-1.563024,-0.08161
36,0.243627,-0.579112,-1.459614
37,0.416927,0.508246,-1.390753
38,0.450335,0.332039,-1.162323
39,-0.389698,-0.921298,1.392722
40,-1.193588,0.240908,1.567088
41,-1.367492,1.547134,1.087414
42,-1.493085,1.230592,1.065979
43,-0.563181,-0.404058,0.687542
44,-0.279488,0.276426,1.350323
45,-0.204235,1.13762,1.423748
46,0.289536,1.970508,0.718638
47,0.578786,2.243426,-0.109877
48,0.148822,1.716397,0.061906
49,-0.327243,1.044235,-3.050124
50,0.059262,0.224309,-0.827122
51,0.172898,-0.190314,-0.571937
52,0.424438,-0.647576,-1.008235
53,0.639096,-0.611614,-1.355606
54,0.386916,-0.551107,-0.840334
55,0.099807,-0.865975,0.039754
56,0.004285,-1.067727,0.147066
57,-0.048549,-1.127663,0.180202
58,-0.415745,-0.842796,-0.008374
59,-0.510436,-0.577358,0.064127
60,-0.447293,-0.305549,0.24605
61,-0.470986,1.864509,0.654226
62,-0.361189,3.400432,0.098409
63,-0.070317,1.649229,0.075851
64,0.039912,2.437372,0.146417
65,0.709735,1.15649,0.085543
66,0.651322,0.855776,0.108024
67,0.564098,0.068726,0.821688
68,-0.042313,-0.686817,1.29394
69,-0.540541,-1.150182,1.178863
70,-1.035553,-1.399932,0.866126
71,-0.654951,-1.445104,0.732496
72,-0.288669,-1.530886,0.703763
73,0.072271,-1.638157,0.319646
74,0.515124,-0.862395,-0.723088
75,0.687095,0.135348,-1.640658
76,0.598634,0.31535,-0.909146
77,0.145263,-0.040972,-0.549166
78,-0.753834,-0.661927,1.618316
79,-3.014625,2.163129,-0.922133
80,-1.288,0.284364,1.718598
81,-1.084023,0.081473,1.326924
82,-0.692402,-0.525587,0.868724
83,-0.350805,1.713671,1.820124
84,-0.280384,1.701746,1.76546
85,0.736603,0.396056,0.486327
86,0.650729,2.69059,-0.503105
87,0.703235,2.025036,-1.130294
88,0.108236,0.711467,-2.626591
89,0.217116,-0.108129,-1.020961
90,0.249966,-0.212923,-0.668735
91,0.055912,-0.645412,-1.036687
92,0.417481,-0.482272,-0.717449
93,0.364335,-0.515473,-0.422449
94,0.32555,-0.832203,-0.167735
95,0.340299,-1.180935,-0.404461
96,0.314342,-1.115736,-0.512066
97,-0.007047,-0.643327,-0.561357
98,0.000492,-0.271212,-0.074141
99,0.175914,-0.038107,0.267068
100,0.228065,2.570699,0.334707
101,-0.160684,4.001317,0.655227
102,-0.457405,2.72372,1.112216
103,-0.676936,1.169694,0.456639
104,-0.39646,0.7297,-0.19239
105,-0.231899,0.566997,-0.119002
106,0.422024,-0.058727,0.599263
107,0.136802,-0.509002,0.698957
108,-0.077635,-0.769639,0.801328
109,-0.728564,-1.441594,1.06096
110,-0.64242,-1.280733,1.279968
111,-0.554093,-1.453161,1.187655
112,-0.385156,-1.399538,0.310774
113,0.012549,-1.224986,-2.878351
114,0.538245,-0.042283,-2.214276
115,0.6724,0.371145,-0.879383
116,-0.217999,-0.877272,1.097415
117,-0.505865,-0.995922,1.376837
118,-1.54664,3.49317,1.725451
119,-1.136245,0.813909,1.027315
120,-0.882428,0.185034,0.866104
121,-0.255306,-0.624418,1.078326
122,-0.270461,0.613446,1.874589
123,-0.129013,0.979199,1.742216
124,0.013424,1.752091,1.084202
125,-0.027137,1.86471,0.157888
126,-0.815322,1.371007,-1.430174
127,-0.783685,0.545328,-2.441192
128,0.224468,0.228129,-0.470871
129,0.284761,-0.141905,-0.291396
130,0.412538,-0.793671,-0.271296
131,1.012373,-0.980335,-1.833592
132,0.917313,-0.775187,-1.365056
133,0.431094,-0.660316,-0.462569
134,0.06298,-1.070011,-0.306944
135,-0.091404,-1.029012,-0.229509
136,-0.223718,-0.919452,-0.090925
137,-0.250217,0.07891,0.639408
138,-0.206191,0.514661,0.732245
139,-0.82785,3.538017,0.371325
140,-0.609929,2.394723,0.540183
141,-0.62196,1.612461,0.520008
142,-0.893957,1.697035,0.275318
143,-0.388174,0.569882,0.487281
144,0.013193,0.427544,0.627464
145,0.899241,0.296034,0.497257
146,0.727098,-0.183937,0.342446
147,-0.118117,-0.75407,0.661808
148,-0.56034,-1.204072,1.050785
149,-0.512074,-1.23294,1.04364
150,-0.466269,-1.329351,0.957605
151,-0.253432,-1.257832,0.394744
152,-0.072697,-1.361048,-0.451652
153,0.941912,-1.034249,-3.366681
154,0.398926,-0.165844,-0.351614
155,0.291166,-0.410197,-0.21895
156,-0.177634,-0.933933,0.563086
157,-0.897606,-0.268614,1.200857
158,-1.379757,3.450519,1.518327
159,-1.561983,2.495874,1.326558
160,-0.455202,-0.495689,0.577605
161,-0.094808,-0.457251,0.982539
162,-0.025055,0.381513,1.35839
163,0.364277,1.702732,0.886156
164,0.343254,1.716207,0.36464
165,0.361159,1.692032,-0.135395
166,-0.933399,0.984907,-2.954833
167,-0.096727,0.55837,-1.56895
168,0.349677,-0.045763,-0.547947
169,0.612223,-0.6023,-0.833362
170,0.724473,-0.788811,-1.090313
171,0.672519,-0.747793,-1.169325
172,0.08662,-0.79361,-0.030196
173,-0.004214,-1.023536,-0.009513
174,-0.079918,-1.117839,-0.072724
175,-0.424179,-0.735744,-0.270325
176,-0.197609,-0.18923,0.175582
177,-0.062888,0.162077,0.361307
178,0.028495,1.753486,0.379017
179,-0.375675,3.16746,0.417339
180,-0.461526,1.234959,0.75317
181,-0.780267,2.175101,0.469903
182,-0.575262,1.339607,-0.195433
183,0.360057,0.971094,0.413477
184,0.861304,0.404703,0.716216
185,0.071249,-0.605337,0.697889
186,-0.300019,-0.768865,0.811926
187,-0.698033,-1.083227,0.878825
188,-0.505578,-1.336853,1.071103
189,-0.401466,-1.428898,1.085568
190,-0.199294,-1.567117,0.962394
191,-0.028322,-1.57673,0.136235
192,0.150277,-1.179818,-0.771917
193,0.453296,0.503135,-1.847325
194,0.034001,-0.17919,-1.130051
195,-0.501523,-0.897549,0.71563
196,-1.888697,3.693771,1.27975
197,-0.980112,1.110266,1.13015
198,-0.844484,0.850555,1.030957
199,-0.166647,-0.489591,0.869904
200,0.130806,0.38272,1.712053
201,0.313481,1.393142,1.837139
202,0.437966,1.728193,0.987761
203,0.19976,1.181519,-0.569043
204,-0.397221,1.604283,-1.696249
205,-0.496362,0.644103,-1.823457
206,0.03939,0.053007,-0.579817
207,0.160706,-0.223803,-0.313473
208,0.289232,-0.975536,-1.107069
209,0.385779,-0.641861,-0.63148
210,0.298348,-0.564236,-0.183811
211,0.094327,-1.005243,-0.070252
212,0.063303,-1.125937,-0.118915
213,0.02524,-1.317595,-0.145771
214,-0.374411,-0.589426,-0.400046
215,-0.499308,-0.607581,-0.160355
216,-0.145148,0.015881,0.392128
217,0.122481,1.195347,0.616248
218,-0.03458,4.99754,0.58154
219,-0.279187,1.809077,0.802037
220,-0.479896,1.270498,0.324575
221,-0.225701,0.711368,0.139123
222,0.036735,0.587592,0.425264
223,0.50436,-0.017254,0.876694
224,0.317208,-0.402607,0.84193
225,-0.381244,-1.00652,0.683864
226,-0.926547,-1.231369,0.799771
227,-0.654149,-1.296053,0.918944
228,-0.558938,-1.431405,0.740933
229,-0.256621,-1.501405,0.09964
230,0.211628,-0.791248,-1.153786
231,0.347818,-0.328919,-1.166193
232,0.490282,-0.07413,-0.673905
233,0.040854,-0.131659,-0.33204
234,-0.270747,-0.383077,0.001901
235,-1.253766,2.532199,0.123188
236,-0.47478,0.187448,1.812271
237,-0.3453,-0.587156,1.236988
238,-0.19605,-1.222761,1.593085
239,-0.016626,0.394023,2.525169
240,0.016327,2.33391,2.73989
241,0.44955,0.448553,0.868008
242,-0.085526,1.86519,0.488315
243,-0.429209,1.658445,-0.972482
244,-1.108824,0.542005,-1.748936
245,-0.55632,0.393788,-0.87358
246,-0.30728,0.099257,-0.892474
247,0.295621,-0.43158,-0.567023
248,0.53171,-0.619077,-0.81193
249,0.654391,-0.67842,-1.074973
250,0.348601,-0.718301,-0.466768
251,0.109491,-0.917893,0.097208
252,0.098898,-1.009762,0.290524
253,-0.321452,-0.85562,-0.063607
254,-0.405751,-0.780182,0.110934
255,-0.328435,-0.665069,0.277213
256,0.006287,0.437907,0.580117
257,-0.353521,3.716109,0.691217
258,-0.335643,3.266057,0.533159
259,-0.641167,1.626694,0.309476
260,-0.602061,1.337267,0.083145
261,-0.14634,0.689851,0.021883
262,0.518584,0.424828,0.540096
263,0.321988,-0.273602,0.495475
264,0.181023,-0.513133,0.541641
265,-0.400441,-0.969446,0.738835
266,-0.820957,-1.11597,0.806285
267,-0.614487,-1.2303,0.946356
268,-0.26683,-1.280102,0.663515
269,-0.217658,-1.265357,0.202681
270,0.571017,-0.454208,-2.246066
271,0.726923,0.471239,-1.132868
272,0.60496,0.078845,-0.787776
273,-0.111081,-0.771324,-0.233704
274,-0.75881,-1.071105,0.980034
275,-1.767661,4.39452,1.610634
276,-1.793051,4.275168,1.572379
277,-0.304103,-0.586592,0.474661
278,-0.002457,-0.917697,0.567973
279,0.091594,-0.363597,1.146345
280,0.121179,1.652109,1.215079
281,0.158671,0.450675,0.531775
282,0.021546,1.111717,0.365475
283,-0.930879,0.82857,-1.251816
284,-0.969514,0.100982,-1.855839
285,-0.367455,0.132404,-1.473816
286,0.49718,-0.072684,-0.614866
287,0.724327,-0.471748,-0.747178
288,0.750312,-0.607144,-0.878018
289,0.290965,-0.84007,-0.239965
290,0.268261,-1.071918,-0.068188
291,0.199041,-1.251045,-0.093641
292,-0.184749,-0.722646,-0.066808
293,-0.283954,-0.603247,0.181191
294,-0.283569,-0.491544,0.365555
295,-0.283839,1.703291,0.86446
296,-1.112298,3.151591,0.629651
297,-0.974424,1.539519,0.214527
298,-0.755556,1.30879,0.211706
299,-0.789329,0.96603,0.29585
300,-0.61999,0.499606,0.230656
301,0.078151,0.105821,0.463684
302,0.807899,0.078916,0.674749
303,0.794976,-0.096016,0.656621
304,0.377204,-0.805999,0.689892
305,-0.133127,-0.922051,0.863476
306,-0.450582,-1.048334,0.62976
307,-0.401343,-0.878013,0.569978
308,-0.352847,-0.757544,-0.368297
309,-0.110123,-0.176152,-1.699052
310,0.379539,0.532474,-2.309301
311,0.385816,-0.640599,0.399829
312,-0.191414,-1.176664,1.960573
313,-0.893344,-0.90971,1.591901
314,-0.989978,0.666153,0.653758
315,-0.689692,0.51835,1.036512
316,-0.212572,0.396136,1.034183
317,0.097666,0.326714,0.946504
318,0.613601,1.356158,1.180923
319,1.094354,1.091883,1.037344
320,0.546362,0.763038,0.392565
321,0.309342,0.914939,0.333461
322,-0.87138,1.156127,-0.695736
323,-1.354702,0.343255,-1.191519
324,-1.225436,0.148402,-0.776636
325,-0.826554,-0.304802,-0.657621
326,-0.147504,-0.587713,-0.856114
327,0.172678,-0.411251,-0.91433
328,0.530051,-0.311542,-0.412614
329,0.54494,-0.597576,0.063214
330,0.648595,-0.8172,0.298725
331,1.100163,-0.87466,-0.162508
332,1.014618,-0.77327,-0.334107
333,0.281761,-0.339227,0.212325
334,0.570666,1.353148,0.775116
335,0.50151,2.28189,0.859005
336,0.56651,2.776603,0.904175
337,0.757248,1.987605,0.790689
338,0.538441,1.578702,0.557839
339,0.371169,1.386402,0.467682
340,-0.288095,0.794779,0.167564
341,-0.107261,0.286056,0.899116
342,0.041381,-0.023161,0.798111
343,0.225575,-0.470781,0.880555
344,0.189165,-0.666647,0.852637
345,0.168771,-0.805634,0.890326
346,0.518275,-0.948221,1.019619
347,0.527237,-0.968195,1.051897
348,0.458721,-0.9841,0.834822
349,0.464156,-0.587458,-0.975558
350,0.556081,0.325209,-2.668494
351,0.41348,0.26692,-2.904396
352,0.801766,-1.003578,2.63108
353,0.745027,-0.047264,1.569186
354,0.641643,0.43368,1.530511
355,0.703645,1.386533,2.193561
356,-0.216681,4.206962,1.541171
357,0.184831,0.721262,0.054277
358,0.760939,0.081453,-0.616132
359,0.644961,0.547239,0.403028
360,0.325599,1.235866,0.681574
361,0.187476,1.371819,0.736325
362,-0.038055,1.149437,0.021541
363,-0.392827,0.611793,-2.067131
364,-0.311498,-0.230675,-1.131008
365,-0.118087,-0.343913,-0.808159
366,0.197069,-0.258973,-0.853105
367,0.61623,-0.358383,-1.259611
368,0.738185,-0.196926,-0.855027
369,0.680587,-0.259541,-0.38935
370,0.60463,-0.778672,-0.044038
371,0.676361,-0.882164,0.176804
372,0.770023,-0.843044,0.281036
373,0.464178,0.200015,-0.435965
374,0.438119,1.107706,-0.030525
375,0.434432,1.839562,0.291024
376,1.040553,2.080408,-0.150375
377,1.316602,2.138685,-0.223967
378,1.373032,2.062278,-0.226191
379,0.328821,1.292716,0.228397
380,0.258297,0.693502,0.620564
381,0.205556,0.25738,0.54493
382,0.172467,-0.365242,0.269931
383,0.21307,-0.662455,0.233688
384,0.185615,-0.802879,0.234503
385,0.291283,-1.210314,0.248044
386,0.586514,-1.44025,0.372984
387,0.505836,-1.50835,0.469452
388,0.297935,-1.517113,-0.52504
389,0.457558,-1.34491,-1.37625
390,0.630662,-0.659104,-2.117867
391,0.273159,-1.015492,1.574829
392,0.005933,0.624391,1.801597
393,-0.410869,2.236231,1.970316
394,-0.836165,2.403367,1.668412
395,0.169816,0.148156,0.098326
396,0.307624,0.783195,0.052599
397,0.601996,1.0941,-0.151454
398,0.512205,0.982393,0.13789
399,0.395724,1.297792,0.258188
400,0.270032,1.715746,0.345807
401,-0.580442,1.25193,-2.680649
402,-0.332433,0.546447,-1.495894
403,-0.012415,0.078782,-1.034098
404,0.560928,-0.417846,-1.143048
405,0.761375,-0.443619,-1.382312
406,1.043966,-0.15582,-1.583919
407,0.685276,-0.364135,-0.815063
408,0.550045,-0.515839,-0.61201
409,0.383747,-0.725711,-0.642884
410,0.18999,-0.495596,-0.556047
411,0.25746,-0.133024,-0.176458
412,0.423212,0.480395,0.410273
413,-0.0627,3.635588,0.60301
414,0.024465,3.098475,0.235669
415,0.315233,1.959428,-0.014644
416,0.401083,1.620713,-0.083939
417,0.948198,1.212898,-0.041642
418,0.927327,0.386108,0.429186
419,0.899843,0.087286,0.500626
420,0.720139,-0.058367,0.514617
421,-0.210641,-0.838994,1.002418
422,-0.439885,-1.327596,0.977311
423,-0.467604,-1.466369,0.888788
424,-0.497463,-1.896264,0.636166
425,-0.574562,-2.086348,0.238384
426,-0.617827,-2.102907,-0.277397
427,0.34358,-0.431035,-2.593308
428,0.51977,0.151499,-2.424591
429,0.490667,-0.333082,-2.408957
430,0.229353,-1.181862,2.133297
431,-0.064546,1.996174,1.950687
432,-0.586972,3.850314,2.508669
433,-0.211774,0.975984,0.140768
434,0.383483,-0.485821,-0.150406
435,0.533207,-0.42631,-0.251529
436,0.288175,1.035508,0.772533
437,-0.153153,1.061952,0.74043
438,-0.165096,1.140787,0.71292
439,-0.015582,1.173663,0.616404
440,0.205769,1.038996,-4.125424
441,0.270936,0.785228,-2.657051
442,0.773325,0.44064,-1.202385
443,0.821271,-0.042848,-1.355317
444,0.856005,-0.418881,-1.664061
445,1.053967,-0.426371,-1.714337
446,0.49547,-0.421175,-0.987341
447,0.306693,-0.569948,-0.79063
448,0.006446,-0.752246,-0.571628
449,-0.118857,-0.900499,-0.215245
450,-0.170529,-0.351922,-0.176059
451,0.075284,0.485262,-0.190889
452,0.073369,1.255862,0.030274
453,0.012037,2.592791,0.287009
454,0.412176,1.924309,0.212086
455,0.821131,1.892186,0.113695
456,0.988417,1.759821,-0.65275
457,0.801808,0.910652,-0.016059
458,0.546962,-0.0216,0.501473
459,0.145333,-0.39744,0.656456
460,-0.698555,-1.560761,0.948766
461,-0.620728,-1.666999,0.800318
462,-0.512726,-1.540907,0.692667
463,-0.411013,-1.62101,0.56676
464,-0.262535,-1.727119,0.276295
465,-0.116003,-1.789601,-0.159629
466,0.703539,-1.012254,-0.940807
467,1.104897,0.637418,-2.437258
468,0.5413,-0.041214,-1.999349
469,-0.529025,-1.207817,1.755522
470,-0.826278,1.55851,1.127877
471,-0.926185,2.569645,0.431389
472,-0.046717,0.964502,-0.101063
473,-0.123366,-0.170623,0.157401
474,0.031274,-0.427124,0.335702
475,-0.111036,0.616802,1.069108
476,0.111184,1.113364,1.011261
477,0.087354,1.419318,0.884186
478,0.336228,1.739484,0.064666
479,0.274777,1.731516,-1.119514
480,0.07265,1.405017,-2.367242
481,0.336403,0.756812,-1.177982
482,0.206309,-0.091718,-1.018978
483,0.394857,-0.312953,-1.206279
484,0.98317,-0.366252,-1.189562
485,0.979095,-0.57749,-1.249444
486,1.054815,-0.689928,-1.537987
487,0.564546,-0.618925,-1.300694
488,0.124589,-0.626404,-0.650255
489,0.014915,-0.473721,-0.375495
490,0.061981,-0.201194,0.038993
491,0.473154,0.888287,0.062473
492,0.501509,1.80352,-0.1214
493,0.128858,2.385314,0.220941
494,-0.304973,1.768588,0.269915
495,-0.555688,2.124883,0.248034
496,-0.915335,0.924217,-0.01722
497,0.259378,0.456189,0.952627
498,1.276577,-0.042274,0.791838
499,0.917824,-0.924261,0.495176
500,-0.451915,-1.309391,0.925843
501,-0.605998,-1.510762,0.808227
502,-0.609288,-1.728407,0.662591
503,-0.411506,-1.808578,0.879557
504,-0.41101,-1.708,0.081863
505,-0.253162,-1.097048,-0.580788
506,0.50487,0.472486,-2.333174
507,0.723171,0.835996,-1.812128
508,0.371161,-0.030227,-0.601617
509,0.085573,-0.131834,1.161607
510,-0.358492,1.501495,1.376475
511,-0.468303,-0.310168,0.554418
512,-0.440452,-0.111402,0.820754
513,-0.393882,-0.19963,0.889253
514,-0.158947,0.62573,1.369395
515,0.020559,1.099596,1.324662
516,0.402426,1.429676,0.901633
517,0.90463,2.057887,-1.365984
518,0.604306,1.842104,-1.941623
519,0.043076,1.163197,-1.399475
520,0.157305,0.177422,-0.987876
521,0.033942,-0.134378,-0.796052
522,0.242215,-0.648631,-0.859226
523,0.754747,-0.601489,-1.200515
524,1.013629,-0.549381,-1.454787
525,1.144874,-0.453106,-1.593781
526,0.693006,-0.512128,-0.719355
527,0.370878,-0.699806,-0.701628
528,0.05504,-0.611289,-1.032641
529,-0.220706,-0.351211,-0.149032
530,0.200059,0.408285,0.360589
531,0.451811,0.865754,0.140254
532,0.245394,2.80822,-0.228602
533,-0.18169,1.002275,-0.047622
534,-0.448836,1.162663,0.110045
535,-0.852705,2.171578,0.218435
536,-0.786057,1.703025,0.270483
537,0.503902,0.543574,0.745723
538,1.613916,0.413482,0.424376
539,0.384005,-1.076482,0.574109
540,-0.03241,-1.303877,1.102398
541,-0.482434,-1.72225,0.818106
542,-0.769759,-1.82814,0.374429
543,-0.691098,-1.66725,0.109516
544,-0.568538,-1.139495,-0.800099
545,0.067897,-0.358681,-1.259349
546,0.322568,-0.498769,-0.871198
547,0.395697,-0.771698,-0.193102
548,0.089634,-1.022027,0.64547
549,-0.051746,-1.145437,0.837406
550,-0.638704,-0.282973,1.045529
551,-0.909513,2.656715,1.959981
552,-0.222434,1.269912,0.655852
553,0.149575,-0.68492,0.269523
554,0.454319,-0.88387,0.689747
555,0.83773,0.50393,1.457046
556,1.205953,1.91194,1.152587
557,0.846793,1.990496,0.372881
558,0.247669,1.755614,-0.386319
559,-1.145369,0.741541,-3.125942
560,-1.003225,0.449105,-2.442313
561,-0.340381,0.123516,-1.111884
562,0.500477,-0.564839,-1.242866
563,0.769741,-0.650406,-1.561322
564,0.963624,-0.528586,-1.446511
565,0.686024,-0.559857,-0.706062
566,0.592698,-0.700685,-0.544256
567,0.436581,-0.908506,-0.349362
568,0.018884,-0.6926,-0.77068
569,0.098818,-0.284096,-0.232249
570,0.210829,-0.073507,0.079104
571,0.366798,1.718027,-0.196207
572,0.075855,3.126471,-0.063598
573,-0.087581,2.183274,0.049439
574,-0.52457,2.464052,-0.005223
575,-0.600053,1.617413,-0.590804
576,-0.54934,0.850677,-0.336385
577,1.329208,0.533116,0.548563
578,1.011154,-0.389427,0.173001
579,0.458171,-0.69295,0.178339
580,-0.521956,-1.133573,0.963727
581,-0.611097,-1.313186,0.995155
582,-0.671528,-1.518178,0.886496
583,-0.329566,-1.793915,0.811234
584,-0.240496,-1.743268,0.41222
585,0.146894,-1.776686,-0.546872
586,0.471951,0.254406,-3.552702
587,0.400684,0.76405,-1.93439
588,0.348128,-0.00884,-1.768873
589,-0.128651,-0.955869,2.308708
590,-1.120862,3.712856,1.573331
591,-0.4591,-0.087517,0.50605
592,-0.213603,-0.318253,0.620063
593,0.063953,-0.154423,1.175237
594,0.232372,0.614606,1.573061
595,0.534938,1.283278,1.44267
596,0.614881,1.708161,0.796103
597,0.588606,1.838556,0.12646
598,0.402775,1.844419,-0.612459
599,-1.149402,1.539344,-2.74824
600,-0.662575,0.687505,-2.137959
601,-0.143934,0.221043,-0.816772
602,0.536535,-0.846981,-1.882421
603,0.942415,-0.730418,-2.109906
604,0.606924,-0.365285,-0.7746
605,0.447464,-0.530392,-0.506762
606,0.389727,-0.754909,-0.469069
607,0.364407,-0.732762,-1.057165
608,0.034054,-0.557869,-1.025601
609,0.048558,-0.487362,-0.700245
610,0.441725,0.263624,0.025104
611,0.705753,3.109803,0.019714
612,0.748002,3.788803,0.21025
613,0.034555,1.389319,0.60109
614,-0.407274,2.055659,0.724892
615,-0.41622,2.07494,0.346668
616,0.768624,0.644145,0.176877
617,1.01116,0.34046,0.669428
618,0.022169,-1.001346,0.559954
619,-0.593459,-1.389894,0.951519
620,-0.633541,-1.521219,1.004424
621,-0.497012,-1.503481,0.884622
622,-0.294405,-1.658886,0.857011
623,-0.251875,-1.63206,0.412283
624,0.308636,-1.61396,-1.509633
625,0.571138,0.262688,-3.349918
626,0.522921,0.461398,-1.285044
627,0.363124,0.008752,-0.784399
628,-0.095974,-0.463923,1.025169
629,-0.983698,4.36067,1.996861
630,-0.656519,1.161033,0.864686
631,-0.113317,-0.593584,0.528273
632,0.113903,-0.754941,1.057812
633,0.245468,-0.226684,1.227772
634,0.454862,1.568747,1.348019
635,0.457115,1.369886,0.934938
636,0.215668,1.775306,0.247267
637,-0.763989,1.611704,-2.406146
638,-0.351562,0.941341,-1.970838
639,0.17621,0.758898,-1.832423
640,0.562112,-0.272142,-0.752703
641,0.756272,-0.899356,-1.308382
642,0.891872,-0.842139,-1.590785
643,0.691489,-0.25378,-1.181513
644,0.580462,-0.302539,-0.776903
645,0.370875,-0.627022,-0.504395
646,0.213184,-0.848806,-0.526867
647,-0.062425,-0.839529,-0.861179
648,-0.4263,-0.600585,-0.952202
649,0.076696,0.312734,0.3471
650,0.334165,2.68001,0.447318
651,-0.116561,3.659994,0.156697
652,-0.281911,1.016744,0.046983
653,-0.820007,2.062846,-0.061514
654,-0.576326,1.327988,0.371927
655,0.013548,0.453583,0.299791
656,1.396859,0.392493,0.643945
657,1.460013,0.19105,0.024471
658,0.710869,-0.579419,0.454606
659,-0.153072,-1.045352,1.31663
660,-0.455585,-1.839462,1.225997
661,-0.698202,-1.751058,1.256546
662,-0.67304,-1.709924,0.752825
663,-0.513699,-1.672854,-0.140465
664,0.643278,-0.291269,-3.456569
665,0.530482,0.328278,-3.009104
666,0.305131,-0.068092,-0.789042
667,0.087313,-1.043486,0.600097
668,-0.155732,-1.363708,1.81202
669,-0.588435,2.384334,1.787998
670,-0.151392,0.573917,0.408921
671,-0.003328,0.288284,0.406834
672,0.284613,-0.438178,0.760528
673,0.568868,1.101958,1.332451
674,0.483188,1.090255,1.192381
675,0.374698,0.593827,0.760476
676,0.037181,1.474723,0.469364
677,-0.048618,1.761286,0.430775
678,-0.049123,1.607853,0.12054
679,-0.60711,0.824964,-2.270769
680,-0.581608,0.79132,-1.411601
681,0.136847,-0.044214,-1.595852
682,0.664069,-0.48907,-2.138538
683,0.962844,-0.147368,-1.497435
684,0.822871,-0.254144,-1.070395
685,0.451036,-0.583737,-0.733195
686,0.280439,-0.749804,-0.709337
687,-0.113896,-0.687963,-0.737827
688,-0.014278,-0.727177,0.015152
689,0.158144,-0.338816,0.252702
690,0.522225,0.199283,0.007716
691,0.901823,3.416924,-0.433565
692,0.464569,2.762815,-0.19925
693,-0.057749,2.223278,0.070393
694,-0.331133,1.65534,-0.261331
695,-0.427028,0.983588,-0.269853
696,0.130129,0.300489,0.315198
697,0.761667,-0.40076,0.594588
698,0.469484,-1.007296,0.605238
699,-0.11253,-1.281765,1.002089
700,-0.499329,-1.472532,1.06348
701,-0.665446,-1.722806,0.683286
702,-0.522955,-1.579742,0.851261
703,-0.434949,-1.776732,0.16279
704,0.010636,-1.028805,-1.397961
705,0.605892,1.062353,-3.6712
706,0.774209,-0.114378,-1.270311
707,0.310469,-0.766597,-0.387298
708,-0.447136,-1.195223,2.33481
709,-2.023869,3.120514,-1.473183
710,-0.939486,2.198198,-0.540363
711,-0.347138,1.086014,0.988906
712,0.100232,-0.728759,0.6087
713,0.220771,-0.296136,0.963513
714,0.860767,1.554384,1.353657
715,0.844443,1.555505,0.767407
716,0.802494,1.680067,0.429893
717,0.406199,1.758688,-0.663875
718,-0.536508,1.084709,-3.501957
719,0.081621,0.913725,-1.297101
720,0.142154,0.005302,-0.580827
721,0.332816,-0.785061,-1.244599
722,0.79907,-0.983391,-1.981633
723,1.006554,-0.705977,-1.964961
724,0.725688,-0.464714,-0.998479
725,0.471409,-0.669736,-0.726548
726,-0.169807,-0.817028,-0.848182
727,-0.407572,-0.648134,-0.563664
728,0.177656,0.00345,0.452138
729,0.403463,0.234362,0.306989
730,0.747634,3.003267,-0.333931
731,0.653507,3.110109,-0.309135
732,0.026829,1.690724,-0.043108
733,-0.559079,2.606403,0.382263
734,-0.684,1.492207,0.255854
735,-0.454508,0.141862,0.171727
736,0.862771,0.096184,0.671806
737,1.071488,-0.478999,0.505619
738,0.247391,-0.904641,0.562597
739,-0.452337,-1.313823,1.140318
740,-0.672549,-1.586939,0.961545
741,-0.657862,-1.608941,1.116723
742,-0.509732,-1.756713,0.830636
743,-0.43187,-1.801999,-0.231879
744,0.051008,-1.074492,-1.633644
745,0.567101,0.777246,-3.232974
746,0.510933,0.289927,-1.20166
747,0.464156,-0.71068,-0.237151
748,-0.091411,-1.630869,1.897769
749,-0.518355,2.28792,1.713492
750,-0.979687,1.883094,0.795076
751,0.037742,-0.596775,0.401286
752,0.231695,-0.821023,0.471782
753,0.506047,0.138374,0.909265
754,0.965715,1.757575,1.12243
755,0.743483,1.777472,0.63498
756,0.315096,1.752962,0.253071
757,-0.541433,1.504681,-1.215206
758,-0.853526,0.908641,-2.927217
759,-0.219091,0.218228,-1.042208
760,0.099017,-0.268574,-1.345637
761,0.39122,-0.420984,-1.499115
762,0.839971,-0.667096,-1.58827
763,0.582005,-0.618606,-0.924707
764,0.515717,-0.715092,-0.778384
765,0.570901,-0.989454,-0.784844
766,0.083508,-0.657007,-0.417746
767,-0.076406,-0.405286,-0.202591
768,0.271425,0.156057,0.192735
769,0.420594,1.683923,-0.037897
770,0.30352,3.586881,0.041237
771,0.065823,2.213509,-0.064539
772,-0.495517,2.122129,-0.214921
773,-0.504145,1.666381,-0.141813
774,0.392957,0.370623,0.670804
775,1.658434,0.000646,0.737991
776,0.470115,-0.76818,0.694457
777,0.058544,-0.952633,1.045024
778,-0.578184,-1.331557,1.158895
779,-0.732622,-1.423365,0.83393
780,-0.638348,-1.510614,1.038013
781,-0.474323,-1.606138,0.817253
782,-0.282869,-1.631682,-0.57284
783,0.030254,-1.25478,-1.903002
784,0.172162,0.262659,-2.851734
785,0.17671,0.430234,-1.983724
786,0.077632,-0.512796,-0.279826
787,0.092444,1.426501,2.03559
788,-0.247,0.594977,0.96152
789,0.057859,-0.294479,0.701073
790,0.176433,-0.569004,1.155479
791,0.320087,0.517875,1.672635
792,0.392748,1.587939,1.679275
793,0.418269,1.378341,0.755465
794,0.431222,1.619307,0.304435
795,0.255781,1.571275,-0.033123
796,-1.16615,1.140532,-2.776458
797,-0.950672,0.761683,-2.436234
798,-0.322969,0.418349,-1.063602
799,0.143825,-0.367014,-0.99262
800,0.358351,-0.55209,-1.292337
801,0.843747,-0.572944,-1.948505
802,0.728377,-0.463607,-0.821597
803,0.584209,-0.540386,-0.519242
804,0.322135,-0.768095,-0.485049
805,-0.012038,-0.679898,-0.973005
806,-0.18023,-0.661776,-1.013829
807,-0.054441,-0.464908,-0.255944
808,0.389387,0.242394,0.227196
809,0.643659,0.712772,0.22969
810,0.800854,4.050142,0.005438
811,0.169017,0.9268,0.160481
812,-0.285637,1.505147,0.229894
813,-0.334038,1.888959,-0.070908
814,0.369008,0.610721,0.056707
815,0.871884,0.694542,0.360738
816,1.299641,0.280166,0.229702
817,0.395582,-0.375661,0.683896
818,-0.079072,-0.770792,1.219341
819,-0.936571,-1.630981,0.899501
820,-1.010638,-1.653178,1.290719
821,-0.850566,-1.780007,0.269978
822,-0.758115,-1.72467,0.06965
823,-0.017915,-1.142542,-1.819461
824,0.186622,-0.046187,-2.35015
825,0.19583,-0.090018,-1.19628
826,0.235881,-0.529261,-0.008338
827,0.232847,-0.781602,1.007516
828,0.118802,-0.538627,1.137641
829,-0.18305,3.334966,1.57088
830,-0.05977,2.555046,-0.115204
831,0.212561,-0.251305,-0.312207
832,0.357483,-0.640925,0.542298
833,0.673065,0.3542,1.107506
834,0.766368,1.055727,1.098049
835,0.55931,1.511104,0.982281
836,0.087487,1.793001,0.892373
837,-0.393216,1.391728,-1.76553
838,-1.119342,0.718169,-2.422365
839,-0.724645,0.43786,-0.638842
840,0.162906,-0.139267,-1.147505
841,0.640569,-0.503354,-1.214822
842,0.71721,-0.599813,-1.366022
843,0.72428,-0.630619,-1.250641
844,0.5684,-0.865855,-1.043244
845,0.461783,-0.914849,-0.87102
846,-0.01035,-0.798397,-0.270989
847,-0.00666,-0.566224,-0.067091
848,0.163887,-0.098409,0.163049
849,0.826438,1.732068,-0.236884
850,0.945203,3.391825,-0.22072
851,0.76924,1.659325,-0.211732
852,0.024049,1.519454,0.143854
853,-0.428192,2.064046,-0.148881
854,-0.625224,1.197909,-0.138244
855,0.265897,0.651125,1.00141
856,0.894946,-0.132963,0.130331
857,0.410779,-0.391689,0.12971
858,-0.618278,-1.056377,1.251766
859,-0.741591,-1.487264,0.843621
860,-0.706172,-1.487743,0.834812
861,-0.61223,-1.598473,0.992833
862,-0.583988,-1.673596,0.224194
863,0.200068,-0.17196,-3.252676
864,0.335158,0.336481,-3.0342
865,0.56896,0.095093,-1.166622
866,0.410396,-0.69936,-0.304246
867,0.206448,-1.151637,0.792808
868,-0.228356,-0.382966,1.370221
869,-1.964151,4.617959,0.251395
870,-0.115769,0.470323,0.088749
871,0.008129,-0.70506,0.558108
872,0.254013,-0.514166,0.914168
873,0.716197,0.778477,1.975674
874,1.080594,1.284331,1.349848
875,0.851477,1.122105,0.682988
876,0.501664,1.328182,0.163622
877,-0.254489,0.989338,-1.079736
878,-0.956411,1.199372,-2.35963
879,-0.396372,0.874261,-1.474885
880,-0.069005,-0.022582,-0.630261
881,0.328442,-0.636975,-0.924253
882,0.731788,-0.412956,-1.186162
883,0.982796,-0.220235,-1.396053
884,1.000598,-0.333059,-1.023785
885,0.967799,-0.434468,-0.857055
886,0.560871,-1.101588,-0.954119
887,0.280976,-1.095829,-0.828882
888,0.226978,-0.451239,0.05777
889,0.436239,0.093526,0.502042
890,0.575797,0.585725,0.309885
891,0.529093,3.516055,0.135768
892,-0.012954,1.453671,-0.047572
893,-0.201148,1.751211,0.145047
894,-0.468877,2.1327,0.245719
895,-0.920171,0.768037,0.105491
896,0.224286,0.665651,0.444225
897,0.874508,0.466853,0.544565
898,0.593797,-0.367013,0.175829
899,0.207972,-0.616452,0.476406
900,-0.429328,-1.431883,0.911749
901,-0.575226,-1.670132,0.751502
902,-0.541311,-1.706851,1.197733
903,-0.424603,-1.774235,0.60498
904,-0.204647,-1.678184,0.18147
905,0.544041,-0.526033,-2.861951
906,0.847811,0.401511,-3.380678
907,0.536676,0.336054,-0.684194
908,0.251698,-0.766587,0.18142
909,-0.101,-1.42176,0.931403
910,-0.824653,-1.083166,1.009801
911,-1.292877,4.190004,-0.660327
912,-0.23192,1.491344,-0.126317
913,0.122175,-0.502328,0.237334
914,0.393006,-0.951822,0.756205
915,0.91456,0.27108,1.398665
916,1.277528,1.511804,1.313297
917,0.978248,1.326297,0.433839
918,0.573853,1.22813,0.020004
919,-0.240433,1.653629,-0.412811
920,-0.678894,1.725701,-1.983506
