,userAcceleration.x,userAcceleration.y,userAcceleration.z
0,-0.840049,-0.734053,0.163569
1,-0.235474,0.336275,-1.948608
2,-0.522702,1.260167,0.825094
3,0.675368,2.526999,1.497169
4,1.737508,1.006182,0.115889
5,1.430271,0.31514,0.028272
6,0.733562,0.1473,0.296096
7,0.533044,0.159511,-0.740767
8,0.921319,0.024368,-0.318241
9,0.688036,-0.489294,-0.902027
10,-0.472726,0.19995,-1.010785
11,-0.750682,1.025402,-0.397301
12,-0.216713,-0.096056,-0.055671
13,-0.314145,-0.835689,0.108631
14,-0.541584,-1.38807,-0.085993
15,-0.564718,-1.722004,-0.908935
16,-0.711318,-0.706519,-0.8957
17,-0.756319,-0.14452,0.371996
18,-0.686202,-0.031489,-0.185791
19,0.009068,0.126442,1.01211
20,2.969417,2.491444,0.735658
21,3.990026,3.967717,0.387952
22,0.620458,0.189383,0.203881
23,0.59469,0.284891,0.243772
24,-0.701862,-0.328016,-0.09527
25,-0.435101,-0.874652,-0.589971
26,-0.252487,-0.839497,-0.223843
27,-0.490688,-0.413278,0.193767
28,-0.743555,-0.1551,0.324693
29,-0.967231,-0.261304,0.617988
30,-1.120356,-0.582476,0.684207
31,-0.987113,-0.631495,0.500042
32,-1.200289,-1.253003,-1.713423
33,-1.272609,-0.507243,-0.065754
34,-1.527322,0.355289,0.11538
35,-0.681001,2.747654,0.601828
36,-0.100515,1.63203,0.509258
37,0.185201,0.892425,-0.135036
38,1.438368,0.284167,1.050291
39,3.572135,-1.175655,0.647908
40,2.616796,-1.676538,-0.683431
41,0.746894,-0.416966,-1.650714
42,-0.085134,0.587051,-0.572934
43,-0.73657,1.505234,-0.600347
44,-0.768352,-0.399249,-0.107219
45,-0.796638,-0.959214,-0.196769
46,-0.917432,-1.931708,-0.651843
47,-0.94779,-1.899347,-0.601142
48,-0.799193,-0.938722,-0.141252
49,-0.004059,0.325296,-3.114755
50,0.278562,0.381866,1.52721
51,1.954933,1.318751,1.162274
52,3.637171,3.020937,0.296052
53,1.654907,1.707683,1.030825
54,-0.684382,-0.024285,0.503678
55,-0.326143,-0.453232,-0.431445
56,0.143623,-0.879398,-1.01545
57,-0.318437,-0.526981,-0.215754
58,-0.88754,0.082961,0.108889
59,-1.123579,0.081702,0.154033
60,-1.485674,-0.457135,0.866908
61,-1.774534,-0.847146,0.945726
62,-1.563992,-0.711423,0.065209
63,-0.960856,0.303989,-4.669329
64,0.370885,1.491959,2.416137
65,1.337989,2.548651,1.385401
66,1.840611,3.05649,0.476044
67,1.988118,0.625781,-0.462
68,1.781843,-0.197875,0.147941
69,1.251736,-1.829654,0.555773
70,0.469342,-1.892443,0.141581
71,0.301406,0.123629,-0.668453
72,0.400563,1.642164,-1.358462
73,-0.314796,0.892692,-0.290145
74,-0.350639,-0.125091,-0.298932
75,-0.638647,-0.740115,-0.044432
76,-1.157039,-1.203167,-0.26333
77,-1.257002,-1.635142,-0.529729
78,-0.941608,-1.087153,-0.719322
79,-0.749354,-0.087574,0.019694
80,-0.355373,0.232722,-1.846353
81,-0.042384,0.106773,1.667602
82,1.737485,0.446911,0.457844
83,5.634712,2.038327,0.053349
84,1.693654,0.978457,0.550611
85,-0.076371,0.340814,0.604932
86,-0.882363,0.281729,0.208696
87,-0.613574,-0.616987,-0.213703
88,-0.04013,-0.726417,-0.398831
89,-0.244156,-0.138376,-0.06483
90,-0.760361,0.351895,0.10213
91,-1.547425,-4.50E-05,0.334612
92,-1.777662,-0.156085,0.464443
93,-1.863021,-0.261717,0.585597
94,-1.419696,-0.19563,-0.045335
95,-1.185947,0.089626,-1.589385
96,0.772215,0.845061,2.685553
97,2.293325,2.257344,0.368949
98,0.918966,0.466253,-0.040062
99,0.583637,-0.140518,-0.937654
100,0.332169,-0.550963,0.189938
101,0.343325,-0.611821,0.141954
102,1.028937,-0.562909,-0.312906
103,0.805881,-1.269133,-0.775081
104,0.335468,-0.636097,-0.847124
105,-0.043645,0.847746,-0.922682
106,-0.322527,0.378127,-0.460488
107,-0.609749,-0.433596,-0.301103
108,-0.83897,-0.755319,-0.329479
109,-1.067969,-1.825393,-0.384215
110,-0.882337,-0.746659,-0.469707
111,-0.805208,0.26665,-0.545835
112,-0.56633,0.819462,-0.757188
113,-0.171736,1.077513,-0.093814
114,2.745358,1.516187,-0.776719
115,3.460254,1.398813,0.564271
116,1.11436,0.655259,0.822304
117,-0.002416,-0.136659,0.496514
118,-0.140909,-0.923869,0.16941
119,-0.029943,-1.126449,-0.601614
120,-0.162679,-1.146295,-0.40997
121,-0.651991,-0.539995,0.144717
122,-0.921933,0.026825,0.414086
123,-1.122094,-0.005889,0.547418
124,-1.478669,-0.212038,0.90062
125,-1.577814,-0.122181,0.76251
126,-1.433689,0.058695,-0.531329
127,0.165645,1.991605,-2.381626
128,-0.141614,1.295994,2.186707
129,1.617511,2.576027,0.608374
130,1.854286,1.325034,-0.763911
131,1.75792,0.331253,-0.013555
132,1.975792,-1.659764,0.618631
133,1.428567,-3.358837,-0.129107
134,0.228874,-2.085601,0.214751
135,-0.08457,0.392632,-0.92619
136,0.025556,2.027579,-0.028791
137,-0.192744,1.057615,-0.084135
138,-0.245071,-0.386439,-0.261148
139,-1.19847,-0.87437,-0.336021
140,-1.362235,-1.326619,-0.548728
141,-1.203059,-1.193473,-0.688383
142,-0.719485,-0.146266,0.234892
143,-0.076888,0.146909,-2.119275
144,-0.277641,0.232805,1.035861
145,3.078829,1.116284,1.10557
146,6.754868,2.602084,0.630863
147,2.127826,0.803205,0.342849
148,-0.317634,0.036453,0.443418
149,-0.721115,0.021328,-0.238619
150,-0.700514,-0.478078,-0.611551
151,-0.438514,-0.805779,-0.334427
152,-0.735034,0.127726,0.327608
153,-0.862781,0.216008,0.456344
154,-1.643113,-0.264562,0.886763
155,-2.116323,-0.443415,0.78298
156,-1.797358,-0.276294,0.01646
157,-1.628751,0.321302,-2.144633
158,-0.083729,1.681631,0.690542
159,0.078335,0.784139,2.341848
160,2.260207,2.385262,1.60824
161,2.656711,1.561919,-0.995778
162,2.092266,-0.063518,0.254747
163,1.225688,-1.555609,0.527413
164,0.683131,-2.163179,-0.135216
165,0.315688,-1.181671,-0.201717
166,0.303197,0.930496,-1.237879
167,0.108139,1.515437,-0.693977
168,-0.167039,1.036077,-0.214006
169,-0.579951,-0.40337,-0.283169
170,-1.099411,-0.877367,-0.217801
171,-1.455837,-1.185032,-0.421709
172,-1.255114,-1.389137,-0.672016
173,-0.73808,-0.356535,-0.057222
174,-0.417666,0.1826,-1.22875
175,-0.146784,-0.108913,1.225562
176,0.922186,0.201041,1.126769
177,2.815502,0.956974,0.776696
178,2.93103,0.500291,0.232302
179,0.380699,0.432212,0.668342
180,-0.657581,0.568189,-0.093053
181,-0.772041,-0.420131,-0.609169
182,-0.64216,-0.585816,-0.538914
183,-0.89343,0.105615,0.210207
184,-1.094199,0.221809,0.712004
185,-1.347038,0.013027,1.030361
186,-2.100514,-0.159217,0.509906
187,-1.798738,-0.191549,0.176149
188,-1.539342,0.117699,-1.012161
189,0.145934,1.522398,-0.985908
190,0.495876,0.782408,1.886276
191,1.610679,1.672993,2.040475
192,1.07267,1.09345,-0.04593
193,0.487233,0.062848,-0.086596
194,0.27491,-0.230063,0.506231
195,1.139944,-0.959626,0.24677
196,2.5284,-1.747145,0.335124
197,0.807818,-1.32456,-0.755884
198,0.200633,-0.386793,-1.114538
199,0.004819,0.452667,-0.386923
200,-0.260968,0.712319,-0.225773
201,-0.674027,0.167485,-0.398585
202,-0.839441,-0.33622,-0.356168
203,-1.321573,-0.79553,-0.233676
204,-1.357966,-0.882409,-0.357821
205,-1.053857,-0.828675,-0.499144
206,-0.639118,-0.10013,-0.100614
207,-0.068852,0.373853,-2.100013
208,-0.169812,0.163703,1.543332
209,4.759421,1.260793,0.305635
210,6.054192,1.430568,0.126219
211,1.371147,-0.182745,0.206661
212,-0.021651,0.105961,0.155148
213,-0.234771,0.143095,-0.112173
214,-0.354136,-0.25551,-0.485281
215,-0.35432,-0.109531,-0.186963
216,-0.760261,0.130612,0.168296
217,-1.042927,0.438858,0.384839
218,-1.153264,0.230377,0.668011
219,-1.30196,0.004626,0.835829
220,-2.01246,-0.412378,0.148525
221,-1.742266,-0.528977,-0.229819
222,-0.895067,-0.184427,-2.590395
223,0.119652,1.01287,1.01472
224,0.676691,0.92709,1.572593
225,2.373719,1.677506,0.474885
226,0.45484,0.515075,-0.330736
227,0.495325,0.267394,0.089605
228,0.688993,-0.245634,0.360715
229,2.500491,-1.181692,0.220585
230,1.901692,-1.700495,0.6429
231,0.028565,-0.833822,-1.759489
232,-0.179539,1.112313,-0.69157
233,-0.46077,1.052531,-0.425743
234,-0.66193,-0.290801,-0.318381
235,-1.084224,-0.746928,-0.301512
236,-1.304996,-0.984978,-0.317847
237,-1.091501,-1.194443,-0.641958
238,-0.817906,-0.392364,-0.13729
239,-0.708173,-0.022138,-0.381381
240,-0.045802,0.305033,1.241048
241,1.266204,0.635502,1.192497
242,5.931526,2.461123,0.346575
243,1.410683,0.300649,0.259203
244,0.573369,0.262517,0.427022
245,0.084586,0.209589,0.336878
246,-0.451952,-0.336721,-0.424596
247,-0.40635,-0.482866,-0.615922
248,-0.532856,-0.430344,-0.174214
249,-0.696263,0.101531,0.272427
250,-0.905728,0.010098,0.483834
251,-1.733048,-0.275634,1.040981
252,-2.02443,-0.370421,0.720823
253,-1.73086,-0.331219,0.002135
254,-1.511922,0.364681,-2.761477
255,-0.328201,1.492664,-3.133687
256,0.008251,1.00844,1.870852
257,1.777819,2.102807,0.235772
258,1.996017,1.633669,-0.517847
259,1.967986,1.023185,0.220837
260,1.293159,-0.790728,0.546113
261,1.922234,-1.972434,0.329921
262,1.598438,-2.215146,0.280823
263,0.417265,-0.376002,-1.452445
264,0.500131,0.174188,-1.189453
265,-0.530966,0.926194,-0.168194
266,-0.789448,0.185376,-0.449136
267,-0.795706,0.181649,-0.41474
268,-1.225151,-0.8499,-0.240849
269,-1.338938,-1.093178,-0.415203
270,-1.170878,-0.89904,-0.349067
271,-0.54603,0.02912,-1.557483
272,0.017367,0.057571,-1.543815
273,-0.104098,0.279063,1.159058
274,5.9344,2.005673,0.111678
275,5.437971,1.374968,-0.194873
276,1.305385,-0.027395,0.243999
277,-0.013346,0.037508,0.320516
278,-0.332739,-0.022071,-0.029072
279,-0.519019,-0.356513,-0.409952
280,-0.431789,-0.207184,0.004582
281,-0.469523,0.119954,0.277278
282,-0.673696,0.375226,0.475456
283,-1.28251,0.07495,0.551384
284,-1.718852,0.035505,0.696498
285,-1.91415,0.02692,0.54029
286,-1.633022,0.019443,-0.576482
287,-1.527013,0.192162,-1.135439
288,-0.300466,1.13044,-3.864844
289,-0.012627,0.855468,2.243939
290,0.946826,1.209061,1.997157
291,1.898351,1.001876,0.350027
292,1.565046,-0.295893,-0.022472
293,1.433196,-0.687275,0.282975
294,1.568403,-1.365945,-0.666703
295,1.095768,-1.25251,0.691406
296,0.32568,-0.957574,-0.063406
297,-0.187347,0.013412,-1.378928
298,-0.150742,1.089173,-0.150585
299,-0.686769,0.336612,-0.419808
300,-1.003952,-0.478042,-0.31679
301,-1.30897,-1.01155,-0.500778
302,-1.376524,-1.214306,-0.581652
303,-1.273034,-1.095329,-0.578714
304,-0.702655,0.042194,-0.477397
305,0.016007,0.147892,0.341609
306,0.332809,0.206937,0.975502
307,5.539683,1.673392,0.61138
308,3.377455,0.46664,0.088642
309,0.532738,0.047971,0.387867
310,0.098445,0.109054,0.571995
311,-0.599949,-0.297495,-0.411125
312,-0.553451,-0.421309,-0.409437
313,-0.551428,-0.329012,0.006665
314,-0.743741,0.181486,0.210601
315,-1.021656,0.308622,0.387396
316,-1.702947,0.244317,1.021795
317,-2.06725,0.195413,0.49608
318,-1.720496,-0.029967,0.103831
319,-1.553225,0.302751,-3.160323
320,-0.345064,0.977275,1.437134
321,-0.295491,0.460459,1.888922
322,1.47339,0.985072,1.756904
323,2.709017,1.310918,1.161145
324,1.965779,-0.278546,0.247288
325,1.197713,-1.50628,-0.198532
326,0.937701,-0.939471,-2.442445
327,1.14143,-1.146351,0.94051
328,-0.379491,-0.267645,-0.905946
329,-0.495488,0.532835,-0.91974
330,-0.236659,0.42931,-0.247388
331,-0.432043,0.089445,-0.059017
332,-1.311562,-0.445644,-0.080872
333,-1.437384,-1.059191,-0.526776
334,-1.194806,-0.692224,-0.366233
335,-0.837484,0.077243,-0.227223
336,0.112129,0.036725,-0.747265
337,0.081576,0.150926,0.921981
338,3.682921,0.943491,1.332938
339,5.156229,0.636014,-0.29587
340,0.574779,-0.174806,0.188398
341,-0.09791,0.161664,0.095999
342,-0.491525,0.098506,-0.345112
343,-0.378819,-0.18995,-0.20376
344,-0.418226,0.133313,0.002554
345,-0.552605,0.285004,0.060385
346,-0.995945,0.357756,0.374684
347,-1.741547,0.125444,0.818864
348,-1.860092,-0.153846,0.314667
349,-1.54076,-0.531036,0.353341
350,-1.509179,-0.7666,-0.485425
351,-0.030887,0.333092,-5.916085
352,-0.565934,0.925835,2.006037
353,1.282091,2.060854,2.423728
354,2.489129,2.075605,1.362613
355,0.543075,-0.007441,-1.284143
356,1.0203,-0.201366,0.823558
357,1.124884,-0.572985,0.227061
358,1.77537,-0.790039,0.052991
359,0.362553,-1.174706,-1.42753
360,-0.080551,-1.132069,-1.20056
361,-0.397053,0.335298,-0.93831
362,-0.476467,0.764931,-0.360284
363,-0.618143,0.182457,-0.180964
364,-1.048174,-0.422069,-0.275187
365,-1.274136,-0.902143,-0.237368
366,-1.279704,-1.126204,-0.270394
367,-1.072091,-0.794318,-0.314121
368,-0.174806,0.021183,-2.273928
369,0.021031,-0.053033,0.166121
370,0.36896,0.278915,0.752568
371,6.833322,2.218596,0.029993
372,3.335335,1.091697,-0.098351
373,1.050388,0.405658,0.092726
374,0.313999,-0.268412,0.153317
375,0.1533,-0.453956,-0.154972
376,0.082433,-0.452418,-0.322412
377,-0.410595,0.176999,-0.094375
378,-0.622859,0.310025,0.006256
379,-1.073542,0.409633,0.283849
380,-1.589573,0.112384,0.880715
381,-1.998468,-0.164678,0.15816
382,-1.67135,-0.406214,0.420878
383,-1.607866,-0.517425,-0.079626
384,-1.483505,-0.572451,-1.509386
385,-0.542458,0.636828,1.607356
386,-0.145505,0.848345,1.927272
387,1.558307,1.727386,1.928451
388,1.565132,0.561375,-1.262207
389,1.14084,0.073733,0.560211
390,0.804528,-0.26428,0.560994
391,2.018942,-0.690705,0.190684
392,0.862147,-1.152915,-1.235237
393,0.2715,-0.755131,-0.29976
394,-0.211959,0.09825,-0.899344
395,-0.449586,0.56961,-0.565657
396,-0.43351,0.219388,-0.214909
397,-0.841824,-0.314133,-0.300666
398,-1.311552,-0.733611,-0.200029
399,-1.447966,-1.114441,-0.3565
400,-1.276596,-0.840802,-0.418951
401,-0.753318,0.006127,0.228159
402,-0.371732,0.445657,-2.016878
403,-0.224442,0.235156,1.408159
404,1.648277,0.474003,1.234629
405,6.368977,1.978354,0.130561
406,1.034528,0.476517,0.246207
407,0.154521,0.181637,0.400663
408,-0.285095,-0.22149,-0.037992
409,-0.190523,-0.864468,-0.382322
410,-0.097518,-0.750514,-0.458202
411,-0.402334,-0.022505,0.078163
412,-0.598514,0.46899,0.2573
413,-0.866717,0.305677,0.342657
414,-1.178785,0.00079,0.715821
415,-1.799052,-0.189496,0.777078
416,-1.725085,-0.288966,0.344647
417,-1.861654,-0.112964,-1.538239
418,0.062481,1.517386,-1.720831
419,0.610934,1.135346,2.236509
420,2.233083,1.675974,1.941529
421,3.196303,1.91868,1.613323
422,1.302989,-0.59323,-0.568403
423,0.552938,-1.103993,0.54396
424,0.834748,-0.971056,0.378604
425,0.773698,-0.270506,0.380911
426,0.009317,-0.412019,-1.531393
427,0.168443,0.588356,-0.698428
428,-0.22912,0.599988,-0.320001
429,-0.575684,0.086183,-0.343115
430,-0.938661,-0.462746,-0.279131
431,-1.113112,-0.668781,-0.171687
432,-1.33424,-1.183105,-0.38208
433,-1.162755,-0.747667,-0.066867
434,-0.737716,-0.308916,-1.255932
435,-0.05166,-0.083611,0.415906
436,0.579204,0.306579,0.967661
437,4.930092,1.880847,1.426163
438,3.07318,0.616808,-0.21431
439,0.378294,-0.177799,0.271298
440,0.055069,-0.039709,0.286064
441,-0.094463,0.197978,-0.051164
442,-0.138339,-0.00526,-0.28828
443,-0.308248,0.084314,-0.353166
444,-0.478726,0.162653,-0.269817
445,-0.894784,0.475109,0.147588
446,-1.167472,0.140308,0.382788
447,-1.651025,-0.151508,0.783407
448,-1.783475,-0.416998,0.520014
449,-1.697908,-0.619261,-0.190619
450,-1.652704,-0.655111,-0.670363
451,0.507028,1.346333,-2.152859
452,1.019106,1.570153,3.28212
453,3.127902,2.472877,2.582035
454,3.692582,2.64884,2.020781
455,0.312442,-0.607352,-1.406458
456,0.869534,-0.423076,0.428369
457,1.004592,-1.027288,-0.106938
458,0.63137,-0.855437,-0.146783
459,-0.098942,-0.795537,-1.251377
460,0.061628,0.273678,-0.542678
461,-0.016281,0.825325,-0.547445
462,-0.107287,0.780079,-0.483788
463,-0.533378,-0.061466,-0.219757
464,-0.961068,-0.541893,-0.262877
465,-1.377428,-0.828854,-0.442314
466,-1.422423,-0.952003,-0.515986
467,-0.996039,-0.303042,-0.074737
468,-0.695375,0.216542,-0.021941
469,0.025837,0.319456,1.225083
470,0.479131,0.556368,1.032752
471,5.644336,2.321105,0.107708
472,1.002977,0.809632,0.3925
473,-0.218979,-0.370795,-0.062962
474,0.074,-0.493477,0.389243
475,0.192845,-0.996469,-0.45464
476,0.170942,-0.564763,-0.596811
477,0.052807,-0.33308,-0.422495
478,-0.589826,0.340266,0.292613
479,-0.932447,0.504793,0.306347
480,-1.112655,0.391833,0.323818
481,-1.587162,0.234416,0.458978
482,-1.728983,-0.029065,0.216576
483,-1.512181,-0.32812,-0.074212
484,-1.361923,-0.612735,-2.968438
485,-0.1741,0.707651,1.34245
486,0.38288,0.649464,1.775127
487,3.736196,2.085377,1.864898
488,1.286957,0.455659,-0.769242
489,0.718349,0.306566,0.161065
490,0.261888,0.240704,0.573417
491,0.917757,0.059993,0.234218
492,0.917062,-0.463078,0.364316
493,0.159968,-0.884142,0.140087
494,-0.342659,-0.026957,-0.694216
495,-0.052747,0.34106,-0.632284
496,0.072086,0.59299,-0.571374
497,-0.305414,0.055627,-0.112584
498,-0.875236,-0.295495,-0.269972
499,-1.027544,-0.444266,-0.218533
500,-1.324801,-0.716693,-0.232248
501,-1.171192,-0.573811,-0.028658
502,-0.96977,-0.276514,0.201149
503,-0.184788,-0.159655,0.11966
504,-0.282275,0.093893,0.97084
505,0.44319,0.102381,0.899043
506,2.149189,1.02711,-0.420196
507,0.530773,0.788487,0.269048
508,-0.63442,0.25899,-0.22836
509,-0.288299,0.285132,0.177414
510,0.48446,-0.312725,-0.283749
511,0.39891,-0.204904,-0.466973
512,-0.124285,0.014997,-0.178766
513,-0.579378,0.194914,-0.100196
514,-0.908915,0.284285,0.018586
515,-0.775233,0.134983,0.161586
516,-0.747915,-0.000127,0.129751
517,-0.663983,-0.316375,0.333949
518,-0.74838,-0.414465,0.287814
519,-1.05528,-0.523472,-0.839766
520,0.063671,0.381649,1.382456
521,0.292294,0.462725,1.20937
522,2.59963,1.589133,0.748699
523,0.207279,0.506881,-0.671908
524,0.170708,0.388156,-0.27505
525,0.410214,0.111018,0.565264
526,0.65521,0.054334,0.26675
527,0.343354,-0.336773,0.353043
528,-0.223973,-0.428118,0.162719
529,-0.572536,-0.134492,-0.454383
530,-0.455138,0.149487,-0.188897
531,-0.259006,0.322654,-0.07607
532,-0.155343,0.345916,0.123402
533,-0.280846,0.170134,-0.034356
534,-0.490798,-0.307875,-0.370664
535,-0.605013,-0.639443,-0.495589
536,-0.488577,-0.687893,-0.33672
537,-0.436141,-0.563258,-0.262949
538,-0.65181,-0.270105,0.281483
539,-0.373231,-0.361731,-1.108145
540,0.406106,-0.396156,0.275609
541,1.368976,0.278261,0.937645
542,2.537937,1.491728,1.359137
543,0.998279,1.088029,0.274414
544,0.000709,0.49204,-0.860619
545,-0.02139,-0.210427,-0.071464
546,0.152874,-0.407346,0.025693
547,0.223261,-0.219712,0.047759
548,-0.161285,0.237601,0.158086
549,-0.242714,0.26964,0.200032
550,-0.320122,0.26882,0.269983
551,-0.609497,0.242714,0.359214
552,-0.657694,0.251208,0.415501
553,-0.680857,0.232655,0.470705
554,-0.685472,0.091048,0.250517
555,-0.094929,-0.045461,-0.194909
556,0.477893,-0.348376,-0.223821
557,0.206751,-0.69424,-0.263833
558,0.046483,0.559938,0.105482
559,-0.601031,0.502432,0.984313
560,-0.663421,0.358048,0.924171
561,1.302014,1.015922,0.326503
562,1.701401,-0.159196,0.554506
563,0.98999,-0.446803,0.244169
564,0.322338,-0.609147,0.590288
565,-0.021752,-0.486979,0.742764
566,-0.176775,-0.349758,0.170401
567,0.085858,-0.245794,0.319193
568,0.034297,-0.160783,0.391259
569,-0.094448,0.074167,0.40518
570,-0.155739,0.081576,0.442905
571,-0.175433,0.141824,0.189512
572,-0.020124,0.275439,-0.134557
573,0.103874,-0.054662,-0.081234
574,0.133863,-0.265922,0.091827
575,0.176046,-0.410048,0.505164
576,0.126095,-0.381182,0.420643
577,-0.11483,-0.129636,0.18699
578,-0.014577,-0.138621,0.093139
579,0.040558,-0.175529,0.032646
580,0.096793,-0.426924,0.244042
581,0.15748,-0.577777,0.258706
582,0.269399,-0.586254,0.254431
583,0.267137,-0.502866,0.191638
584,0.432151,-0.407655,0.156393
585,0.502131,-0.320015,0.050464
586,0.544357,-0.202067,-0.064117
587,0.315419,-0.152563,0.188265
588,0.179133,-0.215817,0.23063
589,0.080932,-0.25297,0.208032
590,0.14954,-0.062754,0.040405
591,0.08914,0.002989,0.105858
592,0.066725,-0.029929,0.153386
593,0.181397,-0.438556,0.236094
594,0.149344,-0.436367,0.22328
595,0.059002,-0.333532,0.210112
596,-0.091715,-0.157483,0.216507
597,-0.055242,-0.155878,0.124286
598,-0.139348,0.050006,0.116546
599,-0.403983,0.18818,0.05882
600,-0.515475,0.291871,0.041156
601,-0.372853,0.256061,0.009418
602,-0.125735,0.233468,0.042502
603,-0.036745,0.227668,0.075685
604,-0.008359,-0.146488,0.073377
605,0.071593,-0.569019,0.037687
606,0.116516,-0.693205,0.19973
607,0.256232,-0.57581,0.31762
608,0.218628,-0.387682,0.3374
609,0.167609,-0.21742,0.24045
610,0.576056,0.493802,-0.364613
611,-0.11609,0.491737,-0.50639
612,-0.422176,0.552378,0.023108
613,-0.33424,0.415315,0.101115
614,-0.227959,0.078149,0.026217
615,0.012828,-0.049751,-0.147392
616,0.653034,0.001998,0.313015
617,0.697733,-0.213556,-0.273178
618,0.557604,-0.270261,-0.112625
619,0.379729,-0.407285,0.118571
620,0.076752,-0.491613,0.390757
621,-0.228289,-0.307416,0.234097
622,0.556858,-0.305552,0.291215
623,1.332941,-0.925048,-0.09022
624,0.464754,-0.812649,-0.941399
625,0.027121,-0.465943,-1.211632
626,-0.306198,0.063074,-0.670366
627,-0.571965,-0.222531,-0.085919
628,-0.75926,-0.318189,0.020066
629,-1.073072,-0.628048,-0.067728
630,-1.136908,-0.730386,-0.226116
631,-0.699949,-0.808808,-0.976953
632,0.108969,-0.006556,-0.573667
633,0.163697,0.136482,0.326296
634,1.122359,0.470279,0.625141
635,5.099984,1.306597,0.64266
636,1.647856,0.00344,0.05675
637,0.478359,0.007729,0.152126
638,0.303006,0.053555,0.122615
639,0.052593,-0.23344,-0.295055
640,-0.223216,-0.331583,-0.421175
641,-0.57139,-0.235653,-0.248193
642,-0.812326,-0.049176,0.241937
643,-0.973992,-0.026172,0.432561
644,-1.24571,-0.219406,0.481901
645,-1.818112,-0.400091,0.386636
646,-1.65376,-0.102384,0.082426
647,-1.420486,-0.08395,-0.067623
648,-0.852727,0.163684,-1.192841
649,0.207416,0.905897,1.329052
650,0.258683,0.730564,1.326765
651,1.326298,1.166628,0.118851
652,0.960858,0.773481,0.102727
653,0.895167,-0.09645,0.426966
654,0.960731,-0.769204,0.024225
655,1.749824,-1.547767,-0.212455
656,1.191179,-1.64228,-0.354359
657,0.710745,-1.189393,-0.271813
658,0.024748,0.346448,-0.687164
659,-0.108306,0.601305,-0.626629
660,-0.397827,0.092897,-0.472103
661,-0.497819,-0.39567,-0.248123
662,-0.897559,-0.671126,-0.185003
663,-1.236927,-0.943232,-0.355711
664,-1.11483,-1.002995,-0.098555
665,-0.915419,-0.570943,-0.675732
666,0.002999,-0.102108,-0.640732
667,-0.032893,0.086529,1.048069
668,1.794925,0.694056,0.814627
669,4.243424,1.549957,0.56343
670,1.708672,0.133363,0.17912
671,0.38569,0.136552,0.232408
672,-0.318839,0.013896,-0.204518
673,-0.504186,-0.226494,-0.361441
674,-0.70617,-0.396706,-0.122677
675,-0.7111,-0.429578,-0.14913
676,-0.842147,-0.157432,0.436315
677,-1.045501,-0.283355,0.416195
678,-1.28014,-0.380173,0.481467
679,-1.844775,-0.298166,0.223391
680,-1.179336,0.214743,-0.720192
681,-0.631676,0.403836,-1.391405
682,0.158609,1.13379,0.75924
683,0.534094,1.016731,1.37604
684,1.387487,1.317996,0.159029
685,0.568628,0.932571,0.005852
686,0.593018,0.269038,0.360132
687,0.668218,-0.044872,0.329499
688,1.640368,-0.666121,0.345365
689,1.724872,-1.953098,-0.316969
690,0.687309,-1.691019,-1.455812
691,0.051679,-0.031844,-0.797744
692,-0.214121,0.590748,-0.681708
693,-0.434681,0.51895,-0.662695
694,-0.487188,-0.435781,-0.380487
695,-0.693949,-0.590153,-0.382267
696,-1.096493,-0.839707,-0.462801
697,-0.911031,-0.989191,-0.143756
698,-0.805697,-0.720499,0.069841
699,-0.042892,-0.499422,-1.494984
700,0.745966,0.046954,1.140942
701,2.060582,0.58091,1.367418
702,3.126174,0.810073,0.058037
703,0.596177,0.476519,0.234068
704,-0.050659,0.292794,0.277413
705,-0.645072,0.247634,-0.300906
706,-0.711832,-0.182021,-0.498806
707,-0.705851,-0.221844,-0.217486
708,-0.750847,-0.114298,0.11801
709,-1.146271,-0.050315,0.512299
710,-1.565449,-0.338526,0.781512
711,-2.038353,-0.590725,0.517277
712,-1.841545,-0.602963,0.044506
713,-1.62811,-0.090167,-1.320903
714,-0.890894,0.565515,-3.0412
715,-0.092722,0.890084,2.123416
716,1.604436,2.129456,1.709926
717,1.8257,1.990071,0.03169
718,1.873277,1.389412,-0.40377
719,1.108375,-0.449243,0.381951
720,1.73181,-1.671569,0.514349
721,2.065173,-2.163148,0.433665
722,0.276968,0.306122,-2.024787
723,0.455024,0.76185,-1.279554
724,0.130774,0.959601,-0.681352
725,-0.654921,-0.163807,-0.370663
726,-0.633764,-0.504632,-0.203766
727,-0.729904,-0.731121,-0.138646
728,-1.197224,-1.299682,-0.341204
729,-1.131562,-1.426977,-0.70021
730,-1.124806,-1.289311,-0.819861
731,-0.156924,0.213441,-2.234208
732,-0.127083,-0.058374,0.63726
733,-0.321993,-0.059955,1.389632
734,7.042789,1.447266,0.507101
735,4.499938,0.408672,0.423855
736,0.181077,0.435601,0.396101
737,-0.522134,0.376064,-0.046875
738,-0.81623,0.088708,-0.332076
739,-0.658593,-0.426097,-0.315392
740,-0.675312,-0.070483,0.115734
741,-0.725824,0.128944,0.231482
742,-1.015532,0.080852,0.878033
743,-1.472978,-0.152949,1.05863
744,-1.703353,-0.198163,0.914635
745,-1.653361,-0.05167,-0.233511
746,-1.59743,0.618978,-2.422873
747,-0.180974,1.770046,0.708618
748,0.185484,0.901829,2.193629
749,1.510689,1.554612,1.169803
750,2.009297,1.208786,-0.263638
751,1.821958,-0.035872,0.273003
752,1.998725,-1.614317,0.181357
753,1.796269,-2.544237,-0.390356
754,0.747235,-1.999064,-0.375083
755,0.157517,-0.466145,-0.702009
756,-0.158588,1.066081,-1.171503
757,-0.402368,1.189232,-0.04645
758,-0.556035,0.098209,-0.229166
759,-0.674435,-0.162382,-0.092044
760,-1.285683,-0.577443,-0.147741
761,-1.35015,-0.940439,-0.426496
762,-1.212806,-0.970452,-0.244152
763,-0.496701,-0.535721,-1.683669
764,-0.133412,-0.040864,1.016922
765,0.395231,0.045219,1.077979
766,4.976707,1.204203,0.445486
767,1.828992,0.050172,0.29966
768,0.927385,0.196878,0.390978
769,0.358655,0.187961,0.35524
770,-0.693818,-0.005309,-0.316864
771,-0.771772,-0.215737,-0.447977
772,-0.765898,-0.307082,-0.285124
773,-0.888647,0.008753,0.203505
774,-1.113437,-0.003602,0.403473
775,-1.29847,-0.16041,0.43708
776,-2.049193,0.13301,0.179564
777,-1.797449,0.203129,-0.040483
778,-1.445884,0.38532,-0.618775
779,-0.40286,1.225887,-3.660704
780,-0.279839,1.037436,1.542699
781,2.457599,1.783646,1.454396
782,3.192048,1.219218,-0.62675
783,2.555295,0.618923,0.190725
784,0.59252,-1.093652,0.277581
785,1.165086,-2.182935,0.201389
786,1.246469,-2.544312,0.271233
787,-0.034106,-0.548733,-0.773897
788,0.348287,1.157838,-1.659419
789,-0.177876,1.131464,-0.221046
790,-0.610522,0.069082,-0.551128
791,-0.562841,-0.369301,-0.270608
792,-1.149476,-0.819718,-0.148339
793,-1.388742,-1.163544,-0.460786
794,-1.242708,-1.274389,-0.777118
795,-0.77202,-0.401808,-0.26991
796,0.088813,0.058415,-1.861842
797,-0.174171,0.147055,1.194045
798,2.229774,0.418749,0.684567
799,6.747992,1.059565,0.116543
800,1.486445,0.432781,0.386788
801,0.204914,0.359192,0.471176
802,-0.499675,0.390848,-0.120651
803,-0.900761,-0.152522,-0.472852
804,-0.878822,-0.384743,-0.522359
805,-0.878964,-0.102028,0.14121
806,-0.958765,0.214233,0.742996
807,-1.086449,0.030799,0.952829
808,-1.331036,-0.200361,1.051667
809,-1.940867,-0.382558,0.221416
810,-1.783909,-0.320591,-0.129958
811,-0.876061,0.774513,-2.806464
812,-0.351937,1.19623,2.198354
813,0.049164,1.161474,2.514148
814,0.994766,1.641377,2.14169
815,1.596908,0.72386,-0.481204
816,1.711083,0.14152,0.155028
817,2.11082,-2.118378,-0.035804
818,0.76197,-2.599461,-0.580272
819,0.192373,-1.528529,-0.149772
820,-0.161665,0.487323,-1.106566
821,-0.137447,1.77519,-0.332316
822,-0.179735,1.44486,0.130958
823,-0.66445,-0.257312,-0.309374
824,-1.013764,-0.653492,-0.389577
825,-1.291412,-1.120344,-0.523818
826,-1.096881,-1.225316,-0.242559
827,-0.986584,-0.71842,-0.233501
828,-0.041149,-0.571115,-1.465991
829,0.088135,0.002064,1.203707
830,2.124044,0.554849,1.149037
831,6.413242,1.17985,0.017237
832,0.885543,0.185609,0.374933
833,0.29352,0.283855,0.460348
834,-0.565595,0.400939,-0.048166
835,-0.895408,0.009293,-0.400302
836,-0.832594,-0.07331,-0.281648
837,-0.729861,0.102322,0.205099
838,-1.029189,0.149492,0.394934
839,-1.486556,-0.13619,0.623619
840,-1.902579,-0.197272,0.610769
841,-1.772796,-0.284015,-0.030337
842,-1.55038,0.05632,-1.620299
843,-0.049855,1.535668,-1.813603
844,-0.133935,0.847038,1.886196
845,0.663794,1.371245,2.317268
846,1.816906,1.103672,-0.340049
847,1.449941,0.301889,0.204833
848,1.501412,-0.767877,0.338658
849,1.987367,-1.925143,-0.310073
850,1.032828,-2.324923,-0.401081
851,0.221354,-1.277003,-0.257632
852,-0.049153,0.272909,-1.095576
853,-0.199896,0.914583,-0.927597
854,-0.664113,0.643451,-0.284769
855,-0.798609,-0.209478,-0.379249
856,-1.099701,-0.658794,-0.410097
857,-1.135156,-1.044163,-0.5053
858,-1.14776,-1.022061,-0.465274
859,-0.736188,-0.240242,-0.2041
860,-0.038956,-0.02836,-1.346122
861,-0.199856,0.007904,1.273115
862,2.991763,0.931992,0.327579
863,5.300203,1.136024,0.050397
864,2.372249,0.372089,0.228906
865,0.104571,0.199072,0.376883
866,-0.660981,-0.011928,-0.284147
867,-0.704403,-0.372599,-0.4347
868,-0.632099,-0.444209,-0.344065
869,-0.785076,-0.073361,0.269272
870,-0.902535,-0.052789,0.172951
871,-1.044418,-0.115731,0.249344
872,-1.856501,-0.394495,0.53593
873,-1.856504,-0.412038,0.517289
874,-1.219296,-0.153912,-1.034506
875,0.216719,1.404945,-4.262815
876,-0.522227,1.10148,2.031831
877,0.883249,1.995073,1.930488
878,1.389158,1.84691,0.442693
879,1.565588,0.785108,-0.033914
880,2.597166,-1.841599,0.480119
881,1.769259,-2.771269,-1.00436
882,0.758729,-2.39009,-1.092817
883,-0.098822,-0.38245,-0.603717
884,-0.17732,0.211404,-1.148079
885,-0.222908,0.972352,-0.521148
886,-0.678338,0.104014,-0.122948
887,-0.866859,-0.155331,-0.161952
888,-1.140335,-0.522828,-0.186697
889,-1.213279,-1.166041,-0.687423
890,-1.04259,-0.934225,-0.207437
891,-0.164955,-0.381479,-2.28724
892,-0.134965,-0.015786,0.977229
893,0.360572,0.005313,1.130607
894,7.120793,2.041295,0.182604
895,1.365722,0.004945,0.146334
896,0.390732,0.260775,0.301448
897,-0.216049,0.256588,-0.068664
898,-0.586599,-0.29641,-0.416607
899,-0.660731,-0.336064,-0.267229
900,-0.699414,-0.077262,0.116156
901,-0.94937,0.162307,0.095617
902,-1.21912,0.077197,0.296756
903,-2.101798,-0.15224,0.484128
904,-2.056784,-0.192989,0.699214
905,-1.493333,-0.274566,-0.144704
906,-1.306449,-0.125024,-0.539101
907,-0.055443,1.255221,-3.981279
908,-0.495504,0.766694,2.258424
909,1.618289,1.821282,2.063417
910,2.303703,1.553923,0.81617
911,1.784063,0.104347,-0.887274
912,1.739921,-0.239175,0.429086
913,1.042074,-1.662859,0.001078
914,1.587322,-2.105865,0.078942
915,0.050396,-1.217618,-0.941093
916,-0.036828,0.272694,-1.08149
917,-0.293476,1.312795,-0.449608
918,-0.483221,0.509204,-0.112412
919,-0.641409,-0.322284,-0.293632
920,-1.065859,-0.764566,-0.272645
921,-1.263337,-0.966036,-0.318977
922,-1.212535,-1.333129,-0.476112
923,-0.943597,-0.599541,0.024685
924,-0.766968,-0.2394,-0.595247
925,-0.098758,0.208562,1.267834
926,1.373846,0.688014,1.148854
927,4.686782,2.043714,0.393167
928,1.407738,-0.212952,0.001633
929,0.708688,-0.343775,0.253887
930,0.025279,-0.35964,-0.043023
931,-0.380803,-0.435394,-0.617254
932,-0.507439,-0.176153,-0.359041
933,-0.690811,0.014911,0.064409
934,-0.926097,0.367802,0.283664
935,-1.335359,0.010469,0.743074
936,-1.746238,-0.117849,0.822998
937,-2.04038,-0.222832,0.304404
938,-1.55758,-0.32763,-0.465828
939,-1.398278,-0.188837,-0.767467
940,-1.060525,0.087465,-1.38221
941,-0.477395,0.837281,1.907554
942,0.436629,1.048358,2.735081
943,2.959249,1.950784,0.859308
944,1.446147,-0.12164,-0.730135
945,0.774752,-0.805004,0.461088
946,0.677539,-1.220252,-1.239727
947,1.182129,-1.87344,-0.183073
948,0.196922,-1.356,-1.24066
949,-0.409325,0.484808,-1.066724
950,-0.29538,1.006259,-0.588887
951,-0.467007,0.059729,-0.192721
952,-0.914472,-0.710482,-0.184052
953,-1.226559,-1.393439,-0.881211
954,-0.983805,-1.36361,-0.513632
955,-0.683337,-0.491648,-0.403357
956,0.055782,-0.461604,-0.513752
957,0.18213,0.273344,1.354885
958,4.316363,1.876215,1.112963
959,4.009416,1.369017,0.166594
960,0.75945,-0.017112,0.262205
961,0.15076,0.09357,0.531365
962,-0.510452,0.280103,-0.062592
963,-0.789956,-0.336587,-0.813182
964,-0.710246,-0.377858,-0.481361
965,-0.834707,0.012878,0.038933
966,-0.97757,0.228933,0.021899
967,-1.191401,-0.049602,0.614862
968,-1.96063,-0.311522,0.93648
969,-1.717805,-0.481687,0.427282
970,-1.516789,-0.46609,0.054119
971,-0.680983,0.537465,-4.067263
972,-0.551967,1.084828,2.132681
973,1.315637,2.619278,2.372439
974,2.25818,2.602458,-0.021617
975,1.432092,1.543798,-0.066549
976,1.120226,-0.069131,0.92407
977,3.202848,-2.831273,0.407452
978,3.009395,-3.576859,0.222744
979,1.006863,-3.577576,-1.997975
980,-0.031564,-0.26926,-0.617829
981,-0.423867,0.825021,-0.85216
982,-0.319415,1.261703,-0.120341
983,-0.556815,-0.058952,-0.393903
984,-0.993961,-0.624874,-0.385855
985,-1.197975,-0.823504,-0.373976
986,-1.018779,-1.079269,-0.070827
987,-0.967161,-0.717043,-0.04634
988,-0.712162,-0.499049,-1.413262
989,0.908975,0.084389,1.440258
990,0.905851,0.14807,1.456776
991,5.030172,1.200481,0.091932
992,1.211931,-0.013007,0.149173
993,0.754244,0.186076,0.45883
994,-0.246573,0.483668,0.09703
995,-0.708274,-0.091832,-0.381576
996,-0.764833,-0.227227,-0.605637
997,-0.849462,-0.105987,-0.045961
998,-0.886092,0.077211,0.489053
999,-1.079872,-0.167296,0.501344
1000,-1.610399,-0.284776,0.64321
1001,-1.832428,-0.083738,0.453653
1002,-1.487594,0.140475,-0.207972
1003,-1.301741,0.656992,-1.665121
1004,-0.506221,2.018266,-0.661308
1005,0.067694,1.220447,2.422179
1006,2.8912,2.004018,0.635443
1007,2.846231,0.772144,-1.286822
1008,1.732517,-0.50306,0.110353
1009,1.242614,-1.76479,0.360743
1010,1.435184,-2.253353,0.119949
1011,0.857649,-2.271501,0.027109
1012,-0.095148,0.40939,-1.241115
1013,-0.378593,1.745851,-0.65371
1014,-0.711712,1.046323,-0.352492
1015,-0.588739,-0.216001,-0.29107
1016,-0.91418,-0.7425,-0.027213
1017,-1.406448,-1.0772,-0.470899
1018,-1.326024,-1.376423,-0.8332
1019,-0.968911,-0.550056,-0.313395
1020,-0.692706,0.049582,-0.288579
1021,-0.221105,-0.134555,0.636017
1022,0.640677,-0.052002,0.573617
1023,4.080306,1.120867,0.532294
1024,4.494539,0.659647,0.293305
1025,1.15428,0.344604,0.437605
1026,0.092067,0.289559,0.460186
1027,-0.654137,0.018538,-0.21146
1028,-0.681915,-0.31481,-0.559927
1029,-0.669653,-0.320981,-0.485698
1030,-0.777894,0.146775,0.052817
1031,-0.834729,0.319678,0.274741
1032,-1.081465,0.072958,0.637067
1033,-1.35245,-0.073039,0.904612
1034,-1.724918,-0.120537,0.190801
1035,-1.603967,-0.159762,-0.079855
1036,-1.509031,-0.126708,-0.328962
1037,-0.306856,0.924551,1.636278
1038,-0.214162,0.753971,2.074668
1039,0.455806,0.984818,2.413445
1040,2.196514,1.576488,0.525985
1041,0.934465,0.25895,-1.010362
1042,0.677394,-0.157472,0.059214
1043,1.722104,-1.504421,0.200486
1044,2.378507,-1.852515,0.21375
1045,2.06031,-1.977826,0.200533
1046,0.2812,-0.496537,-0.632674
1047,-0.059065,0.901693,-0.631594
1048,-0.172594,1.159385,-0.084535
1049,-0.502643,0.103146,-0.430148
1050,-0.806979,-0.815245,-0.545592
1051,-1.312229,-1.226303,-0.314463
1052,-1.27536,-1.152246,-0.447701
1053,-1.222932,-0.872565,-0.33915
1054,-0.523291,0.1277,-1.462302
1055,-0.168406,-0.074358,1.140498
1056,0.759547,0.012218,1.15061
1057,6.314408,1.458412,0.05508
1058,5.31836,0.850204,-0.021201
1059,1.063327,-0.029695,0.240956
1060,0.083871,0.283198,0.460985
1061,-0.643128,-0.245457,-0.373656
1062,-0.573378,-0.193796,-0.386099
1063,-0.660826,-0.180426,-0.191819
1064,-0.712451,0.356215,0.072156
1065,-0.96108,0.457933,0.224247
1066,-1.267424,0.161351,0.596233
1067,-2.015646,-0.031232,0.458114
1068,-1.610741,-0.135873,0.565859
1069,-1.410443,-0.275091,-2.637996
1070,0.332466,1.279249,0.736998
1071,0.104047,0.891638,1.385551
1072,2.533803,2.161194,0.406931
1073,0.978879,0.880627,-0.485838
1074,0.994636,0.243643,-0.894955
1075,1.110652,-1.016842,0.919724
1076,1.648064,-2.137902,0.066463
1077,1.660819,-2.164896,-0.017688
1078,0.225714,-0.169142,-1.432524
1079,-0.041282,0.658993,-0.262111
1080,-0.035901,0.645996,-0.273322
1081,-0.692159,-0.030676,-0.424571
1082,-1.023008,-0.673526,-0.380505
1083,-1.237353,-0.819169,-0.266946
1084,-1.364592,-0.930236,-0.344181
1085,-0.869948,-0.359579,-0.160768
1086,-0.736541,-0.006619,-0.026233
1087,-0.023634,0.275349,-1.320948
1088,-0.052118,0.053321,0.93534
1089,2.5291,0.440849,0.968398
1090,5.607585,0.889474,0.17557
1091,1.276131,0.083924,0.133252
1092,0.207504,0.051837,0.322571
1093,-0.324843,0.119884,0.002658
1094,-0.517585,-0.410948,-0.445673
1095,-0.570722,-0.506578,-0.435265
1096,-0.696588,-0.021523,0.387074
1097,-0.775897,0.010436,0.441027
1098,-0.962403,0.07453,0.460107
1099,-1.692153,-0.124576,0.910142
1100,-1.790068,0.18638,0.237236
1101,-1.687324,0.60395,-1.142433
1102,-0.033242,1.988995,-1.479185
1103,0.205561,0.781709,1.885492
1104,0.628689,0.841206,1.864295
1105,2.218641,0.982903,-0.709419
1106,1.379691,0.23741,0.339865
1107,0.914736,-0.860047,0.675261
1108,1.162687,-1.649672,0.594967
1109,0.800361,-1.966381,0.437631
1110,0.330495,-0.925522,-1.211045
1111,0.563262,0.412388,-1.33643
1112,0.029399,0.869623,-0.364362
1113,-0.669948,0.584515,-0.395346
1114,-0.791122,-0.21575,-0.470492
1115,-0.949535,-0.750094,-0.26046
1116,-1.291915,-1.113684,-0.369297
1117,-1.21473,-1.33176,-0.565811
1118,-0.87497,-0.670019,-0.067593
1119,-0.750858,-0.340729,-0.65948
1120,0.013354,0.111671,0.879477
1121,2.68492,1.15086,1.123541
1122,6.008574,2.465457,0.098335
1123,4.80189,1.916729,-0.046682
1124,0.650129,0.029528,0.262857
1125,0.314252,0.102308,0.302173
1126,0.109942,0.16023,0.210515
1127,-0.432512,-0.166418,-0.478281
1128,-0.454875,-0.042219,-0.574212
1129,-0.512823,0.033261,-0.46893
1130,-1.105097,0.21557,0.134052
1131,-1.161276,0.069015,0.424233
1132,-1.29129,-0.141555,0.676092
1133,-1.923186,-0.396488,0.648703
1134,-1.574576,-0.349516,-0.060266
1135,-1.548977,-0.301031,-0.8757
1136,-0.267151,0.933698,1.585947
1137,-0.284333,0.954695,1.461269
1138,2.060564,1.490121,-0.11018
1139,2.139549,0.682537,-0.208091
1140,1.311024,-0.551699,0.610361
1141,1.303504,-1.345661,0.160761
1142,0.810769,-1.770302,0.125256
1143,0.256651,-1.320173,-0.190641
1144,0.039888,-0.632442,-0.656107
1145,-0.101779,0.972461,-0.114135
1146,-0.098333,0.959907,-0.120042
1147,-0.851724,-0.13493,-0.671946
1148,-1.185762,-0.73625,-0.325375
1149,-1.330936,-0.848769,-0.282667
1150,-1.379988,-0.877015,-0.395682
1151,-1.222416,-0.530664,-0.640639
1152,-0.759927,0.071432,0.010716
1153,0.133444,0.323667,-2.410068
1154,-0.177217,0.230174,1.38201
1155,3.245359,0.658084,-0.094736
1156,5.238311,1.184153,0.207669
1157,0.953835,0.144045,0.17806
1158,0.486063,0.14526,0.375118
1159,-0.354171,-0.310286,0.084025
1160,-0.38114,-1.017508,-0.63973
1161,-0.309134,-0.928642,-0.634441
1162,-0.435542,-0.415047,-0.182933
1163,-0.535098,0.447396,0.566737
1164,-0.762376,0.323618,0.693849
1165,-0.992734,0.129589,0.70615
1166,-1.828711,-0.214658,0.466297
1167,-1.734678,-0.135492,0.172996
1168,-1.734646,0.615399,-2.50599
1169,-0.063398,1.616789,0.267687
1170,-0.240451,0.902261,1.874976
1171,1.637007,1.052172,1.753596
1172,2.372045,0.896563,-1.106284
1173,2.461388,0.333174,-1.315147
1174,0.827516,-0.923816,0.811525
1175,1.231174,-1.581939,0.101408
1176,1.308391,-1.849814,-0.13561
1177,0.331909,-0.419699,-0.699226
1178,0.409416,0.817792,-1.232854
1179,0.276335,0.877688,-0.474896
1180,-0.831622,0.324886,-0.534038
1181,-0.906212,-0.554962,-0.669307
1182,-0.910109,-0.940032,-0.597562
1183,-1.227164,-1.164379,-0.432698
1184,-1.262098,-0.943919,-0.602727
1185,-1.208191,-0.677927,-0.651273
1186,-0.546935,0.088176,-0.094711
1187,0.115046,-0.116819,0.558403
1188,0.632042,-0.173138,0.521883
1189,3.688274,0.568041,0.473745
1190,4.344231,0.637137,0.591272
1191,1.820726,0.266033,0.454116
1192,-0.003602,0.097914,0.337403
1193,-0.459645,-0.123744,-0.044264
1194,-0.490845,-0.426251,-0.285766
1195,-0.394192,-0.370851,-0.364256
1196,-0.53297,-0.033953,0.091456
1197,-0.590925,0.193237,0.215356
1198,-1.078448,0.107017,0.338292
1199,-1.395227,-0.240585,0.808999
1200,-1.728395,-0.420561,0.945242
1201,-1.53624,-0.230956,-0.409474
1202,-0.276476,1.631591,-3.467711
1203,-0.029607,1.398178,1.712965
1204,1.164673,1.844534,1.839362
1205,1.779599,1.886466,0.364857
1206,1.328206,0.665507,-0.437907
1207,1.350524,0.163404,0.645887
1208,1.999948,-1.866079,0.178843
1209,1.611507,-1.98796,-0.091601
1210,0.219334,-1.261914,-1.274215
1211,0.236269,0.16564,-0.891666
1212,-0.277559,0.557969,-0.324661
1213,-0.752771,0.413526,-0.473462
1214,-0.802854,-0.24607,-0.46775
1215,-0.928775,-0.472777,-0.407231
1216,-1.412447,-1.000395,-0.127149
1217,-1.458137,-1.077933,-0.434682
1218,-1.126566,-0.558526,-0.397799
1219,-0.633283,-0.024173,-0.435503
1220,0.114336,-0.102088,0.205797
1221,0.59431,0.245671,0.983604
1222,5.586159,1.662393,0.719681
1223,6.628985,2.240318,0.355301
1224,0.277242,0.115418,0.044164
1225,0.086715,-0.399107,0.199269
1226,0.110871,-0.859106,-0.009847
1227,0.247941,-0.529819,-0.300892
1228,-0.105511,-0.085089,-0.365427
1229,-0.480985,0.385191,-0.210464
1230,-0.825385,0.624242,0.059356
1231,-1.168859,0.566895,0.399292
1232,-1.329175,0.194637,0.726791
1233,-2.000657,-0.114298,0.318769
1234,-1.883051,-0.251513,0.440582
1235,-1.439062,-0.663907,-0.615956
1236,-0.409543,-0.322581,-2.986787
1237,-0.144405,0.747636,1.329642
1238,0.151684,0.707062,2.185602
1239,1.550297,1.283762,2.439718
1240,1.223932,0.579348,-1.202385
1241,0.56238,0.501392,0.543031
1242,0.565203,0.444037,0.626125
1243,1.518483,-0.448095,0.143283
1244,0.95862,-2.013397,0.275213
1245,-0.134421,-1.831716,-1.763577
1246,-0.095923,-0.30101,-0.6387
1247,-0.205801,0.943123,-0.418763
1248,-0.38024,0.796482,-0.334131
1249,-0.596747,0.356075,-0.432264
1250,-1.042393,-0.705467,-0.241201
1251,-1.191381,-0.815049,-0.158167
1252,-1.310527,-0.923247,-0.127415
1253,-1.095332,-0.399324,0.055916
1254,-0.922309,-0.133717,0.222724
1255,-0.837035,0.157339,-0.468887
1256,0.621571,0.103722,1.293363
1257,2.421779,0.494221,0.886433
1258,2.304518,0.801644,-0.017674
1259,1.001503,0.422485,-0.067041
1260,0.279071,0.142845,0.292263
1261,-0.141676,-0.617995,-0.202881
1262,0.119242,-0.551372,-0.364623
1263,0.015984,-0.461851,-0.336844
1264,-0.548145,0.10249,-0.146392
1265,-0.79857,0.208224,0.107618
1266,-0.907729,0.129625,0.193148
1267,-1.167911,-0.27527,0.193316
1268,-1.383827,-0.463576,0.563978
1269,-1.375517,-0.472959,0.368286
1270,-1.18969,-0.181287,-0.448843
1271,-0.851559,0.207767,-2.267498
1272,-0.130797,0.901327,1.615868
1273,1.74236,1.577547,2.3286
1274,2.392159,1.135671,-0.16922
1275,1.096909,0.570086,-0.495109
1276,0.252134,0.265633,0.571196
1277,-0.191686,0.045259,0.469038
1278,1.172332,-0.380736,0.28247
1279,1.633179,-1.195747,0.558281
1280,0.407922,-1.164023,0.172117
1281,-0.171874,-1.014664,-1.543918
1282,0.235124,0.441467,-0.36856
1283,0.017674,0.608349,-0.160148
1284,-0.350711,0.342296,-0.23171
1285,-0.82733,-0.476782,-0.693266
1286,-0.794981,-0.818572,-0.460832
1287,-0.993634,-0.81145,-0.439257
1288,-1.263811,-0.647754,-0.135903
1289,-1.031703,-0.436016,0.211681
1290,-1.07916,-0.339979,-0.052317
1291,0.083214,-0.193446,0.419534
1292,0.564027,0.285207,0.690628
1293,1.595783,0.530574,0.923791
1294,2.303578,0.989906,-0.125446
1295,0.215951,0.07645,-0.035173
1296,0.194119,-0.300897,0.327734
1297,0.35341,-0.418657,0.26066
1298,0.263688,0.085205,-0.347669
1299,0.016829,0.152078,-0.333079
1300,-0.225295,0.224309,-0.249275
1301,-0.916737,0.398992,0.003212
1302,-1.022106,0.432736,0.049583
1303,-1.080599,0.351954,0.103722
1304,-1.542053,0.019176,0.149804
1305,-1.732939,-0.285866,0.038451
1306,-1.591175,-0.449443,0.306097
1307,-1.404636,-0.910996,-1.217366
1308,-0.870646,-1.624534,-6.35235
1309,-0.510524,0.757944,3.003915
1310,3.73377,2.483511,3.765848
1311,4.232253,2.521581,2.080826
1312,-1.85505,-0.633126,-3.511493
1313,-1.801994,-0.714842,-1.523295
1314,0.2165,-0.308234,1.211062
1315,1.271531,-0.665713,0.704151
1316,0.610408,-0.36382,1.176533
1317,-0.376576,0.333228,0.453948
1318,-0.157117,0.20776,-1.907794
1319,0.130756,0.548912,-0.395045
1320,-0.086512,0.137894,-0.081085
1321,-0.633868,-0.307187,-0.023896
1322,-0.619243,-0.616032,-0.146312
1323,-0.964312,-0.722419,-0.329733
1324,-0.91774,-0.202242,-0.323043
1325,-0.775726,-0.178178,0.390675
1326,-1.100587,0.098581,-0.381874
1327,0.227944,-0.626665,0.583655
1328,1.226073,-0.385689,0.141499
1329,4.711039,0.661364,0.601825
1330,2.288567,1.319582,0.050432
1331,-0.423637,0.458545,-0.134877
1332,-0.465044,0.098254,-0.200376
1333,-0.04813,-0.261263,-0.14313
1334,0.846761,-0.876843,-0.305542
1335,0.765934,-0.31789,-0.362073
1336,-0.091168,0.204561,-0.084725
1337,-0.530849,0.206017,0.241298
1338,-0.904917,0.235111,0.225003
1339,-1.046421,0.307126,0.138901
1340,-1.223102,0.484928,0.296369
1341,-1.232316,0.443786,0.270748
1342,-1.380769,-0.043918,-0.113529
1343,-0.081665,-0.577275,-0.31896
1344,0.444213,-1.002618,-1.181769
1345,1.365343,-1.100157,-0.317391
1346,3.02001,1.176123,0.17456
1347,0.676392,0.948961,0.172502
1348,-0.052297,0.955894,0.429419
1349,-0.108646,1.228607,0.9293
1350,-0.216517,0.876352,0.567788
1351,-0.120544,0.670791,0.348942
1352,0.982467,-0.283686,-0.088094
1353,0.597113,-0.651343,-0.212927
1354,-0.217479,-0.289582,0.111757
1355,-0.516879,0.126685,0.092052
1356,-0.334481,0.343254,0.078044
1357,-0.11656,0.237956,0.271858
1358,-0.215703,0.090333,0.229355
1359,-0.346452,-0.235765,0.121713
1360,-0.30989,-0.917745,-0.787769
1361,-0.38635,-0.44458,-0.465826
1362,-0.313491,-0.32224,-0.178758
1363,-0.352127,-0.455719,-0.071273
1364,-0.358095,-0.64247,-0.090273
1365,-0.312668,-0.527416,-0.05141
1366,-0.284247,-0.42546,0.037325
1367,0.310685,-0.536899,-0.491697
1368,0.577542,-0.457752,-0.320875
1369,0.971437,0.69461,0.47254
1370,1.388011,1.546615,0.195408
1371,1.01477,1.573711,0.266492
1372,-0.038854,0.329947,0.219962
1373,-0.190127,-0.109439,0.050544
1374,-0.020309,-0.140031,0.068216
1375,0.544007,-0.185415,-0.199536
1376,0.690794,-0.148338,-0.328753
1377,0.328015,0.182186,-0.03336
1378,-0.063175,0.259875,0.157463
1379,-0.46563,0.225737,0.246274
1380,-0.463135,0.236438,0.219058
1381,-0.429908,0.280421,0.118599
1382,-0.422818,0.67456,0.170464
1383,-0.428076,0.663172,0.151063
1384,-0.485907,0.473288,0.218592
1385,-0.562292,0.308306,0.127674
1386,-0.566131,0.277572,0.112452
1387,0.023098,0.054606,-0.772704
1388,1.430832,-0.548982,0.457204
1389,1.003862,-1.198448,0.80591
1390,0.619039,-0.790408,-0.865767
1391,0.083588,0.395273,0.078767
1392,-0.205,0.685433,0.605032
1393,-0.613332,0.852728,0.088561
1394,-0.491247,1.16625,-0.41131
1395,-0.059926,0.557831,0.178849
1396,0.18126,-0.309246,0.198099
1397,0.038171,-0.711794,-0.14701
1398,-0.213004,-0.535778,-0.115905
1399,-0.059774,-0.062381,0.146244
1400,0.177989,0.071441,0.292158
1401,0.0289,-0.061031,0.129718
1402,0.106192,-0.045969,0.202288
1403,0.113755,-0.043516,0.233842
1404,-0.056366,-0.153532,-0.057468
1405,-0.048,0.099281,-0.176576
1406,0.316404,0.300253,-0.074902
1407,0.324212,0.245648,0.027006
1408,0.028989,-0.227835,0.170384
1409,-0.097177,-0.235234,0.158206
1410,-0.169068,-0.19514,0.083519
1411,-0.36307,0.054303,-0.038882
1412,-0.355243,-0.113642,-0.052061
1413,-0.298565,-0.122508,-0.007623
1414,-0.009914,0.194738,0.118025
1415,0.131718,0.203721,0.085475
1416,0.174034,0.136642,-0.013622
1417,0.018272,0.041553,-0.098989
1418,-0.020893,-0.017838,-0.072992
1419,0.105183,-0.132022,-0.113567
1420,0.149274,-0.037906,-0.014163
1421,0.107041,0.018842,0.004032
1422,0.051516,0.060644,0.039258
1423,0.059525,-0.142128,0.039196
1424,-0.019692,-0.19236,0.005077
1425,-0.013471,-0.137761,0.030859
1426,0.082169,-0.08837,0.035898
1427,0.073488,0.08015,-0.017155
1428,0.108753,-0.002756,-0.014346
1429,0.107125,-0.203927,-0.076127
1430,0.053409,-0.152113,-0.068257
1431,-0.049638,-0.185129,0.031274
1432,-0.036298,-0.292673,0.102066
1433,0.052428,0.078674,0.094472
1434,0.051537,0.074745,0.099568
1435,0.16402,-0.089273,0.107617
1436,0.193844,0.480263,0.095662
1437,-0.163622,0.486317,0.003069
1438,-0.318453,0.260994,-0.103524
1439,-0.092468,0.217771,-0.115395
1440,-0.158175,0.424784,-0.037346
1441,-0.107521,0.02623,-0.166779
1442,0.196125,-0.141622,-0.094118
1443,0.155238,-0.054528,0.099524
1444,-0.017848,0.072562,0.03524
1445,-0.184691,0.11416,-0.040435
1446,-0.176632,0.028319,-0.028841
1447,-0.013741,-0.249272,-0.045806
1448,0.053884,-0.138966,-0.097085
1449,0.09263,-0.099254,0.020005
1450,0.081522,0.018782,-0.045352
1451,-0.069515,0.170097,-0.053982
1452,-0.153407,0.127159,-0.006255
