,userAcceleration.x,userAcceleration.y,userAcceleration.z
0,1.939472,0.545941,1.108186
1,1.112025,-0.238001,1.40947
2,-1.839289,0.854599,-5.021367
3,-1.198711,1.797135,2.930578
4,0.537277,0.449856,0.779653
5,1.035253,1.227239,-0.356696
6,-0.0668,1.323699,0.221484
7,-0.451767,0.858811,0.307973
8,-0.684355,1.770465,-0.420405
9,-0.06887,1.158585,-0.470569
10,0.553629,0.473739,-0.599403
11,1.016018,-0.273691,-0.571655
12,1.185222,-0.839435,-0.563264
13,1.200451,-1.513813,-0.061616
14,0.986759,-1.709232,-0.025427
15,0.888305,-1.667613,-0.199005
16,0.567119,-0.841675,-0.511089
17,0.165983,-0.294543,-0.373338
18,-0.179151,-0.374486,-0.287806
19,-0.525319,0.261193,0.359243
20,-0.213821,1.830978,0.497635
21,-0.27404,4.413514,-0.074537
22,-0.783115,1.500859,-0.168964
23,0.189985,1.798996,-0.249044
24,1.094665,1.514807,-0.294475
25,1.355863,0.4766,-0.12698
26,0.088813,0.162036,0.216243
27,-0.239395,0.116212,0.624822
28,-0.651276,-0.160797,0.840372
29,-1.498293,-1.311168,0.559923
30,-1.650516,-1.580854,0.709142
31,-1.977287,-2.150457,0.691325
32,-1.467243,-1.549802,-0.260987
33,-0.957562,-1.100664,-0.368852
34,-0.217627,-0.566903,-0.479125
35,1.102599,0.451936,0.206173
36,1.924664,0.89124,1.381572
37,-1.386802,0.586358,-0.614886
38,-1.435725,-0.756106,0.203378
39,-0.942567,-0.740426,1.009563
40,0.489477,1.711946,0.118427
41,0.651335,2.257452,0.038679
42,0.775816,0.86721,0.619526
43,-0.355694,1.226743,-0.397471
44,-0.619783,1.091006,-0.733069
45,-0.487376,0.932458,-0.637098
46,0.605971,-0.423268,-0.277384
47,0.7504,-1.067409,-0.684629
48,0.855083,-1.239096,-0.286227
49,0.823619,-1.549849,-0.011282
50,0.804821,-1.557254,-0.061789
51,0.723184,-0.880592,-0.449189
52,0.390364,-0.554956,-0.413514
53,0.010215,-0.418842,-0.441992
54,-0.388289,-0.638233,-0.364508
55,-0.425977,-0.702763,0.39442
56,-0.300563,0.389998,0.523764
57,0.022537,2.751339,0.701208
58,-0.721793,3.612749,0.10989
59,-1.262143,1.347118,-0.503458
60,0.338763,0.970045,-0.094793
61,1.706388,0.617277,-0.357851
62,1.380104,0.018847,-0.159832
63,0.129435,-0.257587,0.062792
64,-0.736268,-0.498524,0.845723
65,-1.088748,-0.92917,0.786898
66,-1.428777,-1.779689,0.681207
67,-1.799955,-2.169073,0.383934
68,-0.634581,-1.345817,-0.086418
69,-0.160474,-0.788264,-0.147981
70,0.415887,-0.195614,-0.689076
71,1.498925,0.467779,0.598264
72,1.465154,0.47473,0.588131
73,-0.16443,-0.099448,1.38912
74,-1.790813,1.28201,1.514619
75,-0.338725,-0.215854,1.621202
76,0.350376,1.916412,-0.34351
77,0.672293,1.660102,-0.239458
78,0.524112,1.159898,0.086884
79,0.066407,0.478764,0.317811
80,-0.066932,1.196943,-0.437924
81,-0.091119,0.860901,-0.420838
82,0.470643,0.178904,-0.568053
83,0.990642,-0.751159,-0.718171
84,0.930886,-1.144398,-0.375992
85,0.687372,-1.768097,-0.044472
86,0.618934,-1.435005,-0.313074
87,0.600945,-0.994969,-0.610496
88,0.4483,-0.271285,-0.522274
89,-0.031045,-0.184083,-0.254571
90,-0.109287,-0.184704,0.247415
91,-0.438959,3.723735,0.155332
92,-0.950886,4.127198,0.258099
93,-1.001241,2.203654,0.018945
94,-0.060524,1.406153,-0.173975
95,0.505065,1.347832,-0.185897
96,1.128282,0.683358,-0.42458
97,-0.269757,-0.39983,0.49257
98,-0.477718,-0.660088,0.496972
99,-0.933686,-1.086291,0.625089
100,-1.105647,-1.426819,0.639869
101,-1.357203,-1.757749,0.606544
102,-1.650791,-1.907106,0.157807
103,-0.804715,-1.264491,-0.09362
104,-0.224277,-0.58315,-0.508308
105,0.292475,0.055253,-0.993187
106,0.982542,0.259449,0.785971
107,0.463944,-0.099893,0.944476
108,-0.446036,-0.286989,0.610643
109,-2.124133,1.748098,2.361908
110,0.233538,1.112977,1.757492
111,1.224905,1.431924,0.514316
112,0.457816,0.595062,-0.267174
113,-0.606955,1.466798,0.013506
114,-0.655915,1.987479,-0.361344
115,-0.421835,1.298149,-0.742686
116,1.101669,0.24557,-0.618428
117,0.990067,-0.283733,-0.555793
118,1.08799,-1.158321,-0.419061
119,1.211208,-1.578989,0.147138
120,1.207441,-1.581004,0.155547
121,1.009591,-1.201537,-0.537529
122,0.493998,-0.457227,-0.52966
123,0.441705,-0.462515,-0.504152
124,-0.276431,-0.333038,-0.332752
125,-0.513583,0.174727,0.691867
126,-0.570698,0.183923,0.774065
127,-0.154758,2.819536,0.201675
128,-0.48313,1.996675,-0.042708
129,-0.14612,1.553744,-0.391099
130,1.378605,1.088999,-0.03994
131,1.134433,0.467418,-0.007035
132,0.447016,0.343005,-0.009415
133,-0.752574,0.079162,0.11827
134,-1.195724,-0.542473,0.797594
135,-1.21886,-0.884448,0.688118
136,-1.867141,-2.135037,0.532494
137,-1.761881,-2.166253,0.400463
138,-1.446534,-1.959663,0.189176
139,-0.360794,-0.819794,-0.183435
140,-0.006888,-0.491971,-0.561104
141,0.984618,0.106748,0.302807
142,-0.258729,0.826147,-0.246347
143,-1.427669,3.393719,1.945842
144,0.391375,0.463516,1.332965
145,1.037436,0.865396,-0.740721
146,0.432406,1.156809,-0.027989
147,-0.152546,0.959346,0.840885
148,-0.749583,1.6867,-0.238903
149,-0.182006,0.916052,-0.814726
150,0.705682,0.323781,-0.493192
151,0.448316,-0.881888,-0.443582
152,0.577272,-0.984378,-0.483636
153,0.813506,-0.954091,-0.430508
154,1.128883,-1.632657,0.176599
155,1.322478,-1.427255,-0.447882
156,1.131162,-1.150388,-0.752534
157,0.095489,-0.107331,-0.541675
158,-0.49501,-0.523925,0.113068
159,-0.533924,-0.525082,0.192664
160,-0.306012,0.938739,-0.364563
161,-0.847577,2.900687,0.621895
162,-0.912269,2.925927,0.679568
163,-0.053914,1.522957,-0.01087
164,1.288784,0.991556,-0.054104
165,1.176548,0.508892,-0.092477
166,0.156537,0.131523,0.015301
167,-0.712132,-0.369079,0.655999
168,-0.876773,-0.585723,0.832012
169,-1.04384,-1.13269,0.742561
170,-1.622112,-1.906021,0.623532
171,-1.709996,-2.034791,0.471817
172,-1.345448,-1.724568,0.04978
173,-0.27699,-0.755147,-0.34873
174,0.035978,-0.485781,-0.631751
175,0.653375,0.026727,-0.640585
176,0.962006,-0.167366,1.071615
177,0.153519,-0.397377,0.542753
178,-2.458061,2.57811,-4.193234
179,0.781419,0.623137,0.927932
180,0.699278,0.834707,0.01483
181,0.266655,1.20973,-0.077625
182,0.074705,1.459883,0.59095
183,-0.346915,1.217984,-0.041672
184,0.027262,0.998486,-0.470955
185,0.173758,0.934388,-0.696682
186,0.35207,0.366571,-0.588264
187,0.565027,-0.535949,-0.542704
188,0.875191,-0.883891,-0.370435
189,1.042359,-1.414925,-0.025441
190,0.882702,-1.753054,-0.11684
191,0.72821,-1.230493,-0.462487
192,0.279911,-0.645634,-0.420272
193,0.053669,-0.298775,-0.633821
194,-0.363964,-0.409761,-0.210332
195,-0.468001,-0.30253,0.546339
196,-0.224208,0.957229,-0.231058
197,-0.222488,4.147039,0.361621
198,-0.769425,2.181357,-0.031331
199,0.423986,1.083262,-0.081889
200,1.081967,0.96918,0.022289
201,1.446129,0.729336,-0.054168
202,0.505104,0.091986,0.111041
203,-0.882349,-0.435996,0.347173
204,-1.169466,-0.659281,0.549492
205,-1.299341,-1.472079,0.734924
206,-1.557515,-1.957897,0.54059
207,-1.554943,-2.062979,0.28834
208,-0.597184,-1.211853,-0.47121
209,0.216196,-0.624303,-1.23336
210,0.248886,-0.628395,-1.194986
211,1.759365,0.174532,1.286546
212,-1.429521,2.252018,-2.752888
213,-1.419739,2.245536,-2.783754
214,-0.050885,-0.124262,0.972313
215,0.474573,0.935763,0.183917
216,0.550668,0.917114,0.142105
217,-0.102121,1.038323,0.398313
218,-0.232286,1.28048,-0.366203
219,0.167343,1.102149,-0.718778
220,0.426428,0.430385,-0.643059
221,0.495599,-0.556607,-0.232231
222,0.584563,-0.76744,-0.32938
223,0.787989,-0.886283,-0.588909
224,0.854219,-1.444694,0.037964
225,0.839964,-1.453087,-0.03855
226,0.332185,-0.657178,-0.561357
227,0.227114,-0.433905,-0.492576
228,0.014996,-0.351373,-0.416975
229,-0.254631,-0.61706,0.371271
230,-0.296149,-0.177257,0.698645
231,-0.210115,1.452798,-0.377912
232,-0.916764,2.66969,0.531778
233,-0.895617,1.060017,-0.241491
234,0.709027,0.988818,0.040448
235,1.464029,0.641045,-0.111962
236,0.799519,0.185797,-0.138651
237,-0.311339,-0.113303,0.166585
238,-0.732749,-0.359442,0.581683
239,-1.109997,-1.044419,0.501287
240,-1.37992,-1.799497,0.481955
241,-1.561125,-2.069187,0.276255
242,-1.121971,-1.816002,-0.141501
243,-0.197791,-0.978253,-0.505599
244,0.690449,-0.50469,-0.348044
245,1.200602,-0.150073,0.931173
246,-0.478512,0.714457,-0.559593
247,-1.346702,3.629299,1.449227
248,-0.142983,-0.099649,0.598734
249,0.301698,0.762601,-0.017082
250,0.34966,1.467483,0.014081
251,0.209698,0.74609,0.415899
252,0.099422,0.906671,0.085901
253,0.394381,1.091613,-0.339792
254,0.225491,0.235073,-0.585275
255,0.265498,-0.053787,-0.458207
256,0.421883,-0.661685,-0.273248
257,0.733997,-1.127666,-0.30491
258,0.769622,-1.349806,-0.104691
259,0.811764,-1.548648,-0.029806
260,0.467363,-0.871721,-0.679077
261,0.27043,-0.593427,-0.643548
262,-0.08942,-0.286839,-0.483279
263,-0.303682,-0.423652,0.626243
264,-0.355507,-0.005843,0.826595
265,-0.35269,1.434393,-0.238459
266,-0.97841,2.554425,0.317538
267,-0.613011,1.286877,-0.083246
268,0.74704,1.021145,-0.104312
269,1.391703,0.368469,-0.304449
270,1.349929,0.387277,-0.304841
271,-0.115995,-0.28686,0.09873
272,-0.792729,-0.623277,0.549129
273,-0.805027,-0.892635,0.62939
274,-1.011448,-1.487138,0.681283
275,-1.573564,-1.913126,0.30038
276,-1.438248,-1.822866,0.055902
277,-0.784217,-1.220207,-0.269003
278,0.275964,-0.270643,-1.207259
279,0.956916,-0.130033,0.084106
280,-0.846267,0.714832,-2.233665
281,-2.123882,3.936304,-1.343744
282,-1.602413,3.877535,2.285452
283,1.255237,0.224952,0.09791
284,1.518626,0.887615,-0.086337
285,-0.32556,1.109906,0.582534
286,-0.571238,1.01279,0.594441
287,-0.401281,0.771257,-0.272946
288,-0.110241,0.852783,-0.606112
289,0.343151,0.278969,-0.524056
290,0.605284,-0.475846,-0.451105
291,0.920922,-0.921606,-0.286839
292,0.990202,-1.129645,-0.323172
293,0.942179,-1.508517,-0.168043
294,0.81779,-1.425267,-0.206993
295,0.435425,-1.009794,-0.573137
296,0.265551,-0.578084,-0.543989
297,-0.16744,-0.493615,-0.398585
298,-0.380075,-0.574301,-0.268722
299,-0.423555,-0.307603,0.663031
300,-0.199691,1.01613,-0.216734
301,-0.129519,4.049995,0.386186
302,-0.655069,1.126296,-0.40034
303,-0.728801,1.149684,-0.383629
304,1.151959,0.721272,-0.282143
305,1.217044,0.454897,-0.436361
306,0.969444,0.12432,-0.396571
307,-0.227937,-0.351332,0.2258
308,-0.870034,-0.568452,0.791594
309,-1.094742,-1.171036,0.616508
310,-1.552002,-1.843923,0.486087
311,-1.77802,-2.026053,0.197548
312,-0.956376,-1.654594,-0.179852
313,0.010234,-0.727183,-0.57735
314,1.526128,0.008713,0.739278
315,1.649942,0.124634,1.45624
316,0.093383,0.407651,0.622869
317,-1.389759,0.992728,0.85396
318,-0.308899,-1.230953,0.786489
319,0.768189,-0.420512,0.456415
320,-0.405295,2.28537,0.310839
321,-0.186711,1.954635,0.200655
322,-0.128739,0.670981,0.417211
323,0.189121,0.937868,-0.527173
324,0.130675,0.74947,-0.567788
325,0.700834,-0.66406,-0.439259
326,0.896571,-0.921339,-0.444816
327,0.999552,-1.030204,-0.251267
328,0.913755,-1.358746,0.188396
329,0.803245,-1.428309,0.090766
330,0.288234,-1.092792,-0.500494
331,0.106906,-0.609981,-0.458859
332,-0.088782,-0.539166,-0.348408
333,-0.252958,-0.445116,-0.090916
334,-0.34506,0.531727,0.134575
335,-0.030166,2.646273,0.671562
336,-0.386474,2.481229,0.204266
337,0.089563,1.604806,-0.58154
338,0.699202,1.077056,-0.26226
339,1.091884,0.547976,-0.040064
340,0.693282,0.14046,0.167323
341,-0.302514,-0.060649,0.362898
342,-0.923208,-0.232666,0.398724
343,-1.123088,-0.835289,0.553178
344,-1.123527,-1.126208,0.438678
345,-1.179285,-1.339322,0.321352
346,-1.310504,-1.710947,0.191437
347,-0.410302,-1.23106,-0.306375
348,-0.029667,-0.949616,-0.44564
349,0.528513,-0.49559,-0.728685
350,1.105103,-0.219234,0.592401
351,0.078695,-0.283184,0.074394
352,-1.956343,4.194162,-0.541869
353,0.524573,-0.299949,0.114854
354,1.103283,0.010116,-0.098197
355,0.192914,1.013287,-0.022143
356,-0.289298,1.274398,0.72078
357,-0.309656,1.279716,0.561095
358,-0.283616,0.90065,-0.507231
359,0.177578,0.802626,-0.526378
360,0.488838,0.439999,-0.347697
361,0.575636,-0.37085,-0.608608
362,0.811497,-0.844215,-0.550892
363,1.137906,-1.244756,-0.055671
364,1.036476,-1.782545,-0.025929
365,0.502188,-1.195682,-0.489832
366,0.221051,-0.855527,-0.493184
367,0.062291,-0.510608,-0.420353
368,-0.312834,-0.603884,-0.168469
369,-0.348761,-0.685688,-0.08895
370,-0.071198,-0.102329,0.595926
371,-0.041407,0.58788,0.229398
372,0.287339,4.141724,0.47698
373,-0.946159,1.713744,-0.499613
374,-0.756516,1.428909,-0.666298
375,0.889973,1.124133,-0.190205
376,1.86615,0.363399,0.051375
377,1.407391,0.157201,0.196088
378,-0.608957,-0.133637,0.642267
379,-1.251702,-0.348137,0.587951
380,-1.263338,-0.924106,0.381586
381,-1.80852,-1.609894,0.513914
382,-1.613291,-1.97494,0.017495
383,-1.188147,-1.773362,-0.185671
384,-0.729623,-1.349498,-0.185101
385,0.413526,-0.4337,-0.600912
386,1.367268,0.002478,0.059357
387,1.805705,0.332389,0.730001
388,0.837597,-0.805225,1.303849
389,-1.776185,-0.282986,-2.389885
390,-2.332791,3.015232,-3.29883
391,1.495959,0.225439,0.470583
392,-0.592404,0.519863,-0.291069
393,-0.551244,0.503557,-0.313234
394,-0.618142,1.85007,0.075576
395,0.383448,0.82154,0.413496
396,0.609272,0.494505,0.169541
397,0.316563,0.96628,-0.459396
398,0.132869,0.127208,-0.495905
399,0.16947,0.129313,-0.505095
400,0.718515,-0.598901,-0.38818
401,0.959555,-0.995698,-0.281628
402,0.928394,-1.359702,-0.081627
403,0.665623,-1.566306,-0.35219
404,0.198698,-1.037948,-0.429411
405,0.173838,-0.824013,-0.576991
406,-0.033354,-0.576478,-0.219439
407,-0.171469,-0.68115,0.31643
408,-0.091635,-0.413851,0.713573
409,-0.296506,1.001865,-0.346507
410,-0.470593,2.821138,0.031938
411,-0.593615,1.259763,-0.382992
412,-0.141412,1.303826,-0.179398
413,1.487234,1.052787,-0.085036
414,1.048985,0.400013,-0.017348
415,0.522748,0.107639,0.090967
416,-0.115198,0.033398,0.526266
417,-0.715807,-0.452753,0.361578
418,-1.213623,-0.904071,0.152398
419,-1.240433,-1.078648,0.220381
420,-1.330696,-1.390167,0.239065
421,-1.248747,-1.491774,-0.031749
422,-0.453337,-1.097956,-0.319548
423,0.222664,-0.621185,-0.75268
424,1.222075,-0.148576,0.41507
425,1.301473,-0.192768,0.880961
426,-0.69936,1.300232,-0.690878
427,-1.641318,3.091934,1.100892
428,-0.169256,-1.013159,0.563848
429,0.27355,0.82162,0.320699
430,-0.287534,1.653039,0.078
431,-0.117641,1.025542,0.300343
432,-0.060803,0.884664,0.203361
433,0.252942,0.85775,-0.250637
434,0.193654,0.74129,-0.368093
435,0.121947,0.484709,-0.430232
436,0.61118,-0.336948,-0.290589
437,0.647643,-1.06465,-0.325783
438,0.698529,-1.154723,-0.261255
439,0.736179,-1.297675,-0.168188
440,0.681311,-1.433699,-0.300961
441,0.498882,-1.076277,-0.260862
442,0.363158,-0.718829,-0.488948
443,0.149817,-0.493527,-0.491091
444,-0.196139,-0.53514,-0.265944
445,-0.498323,0.577664,0.115568
446,-0.420438,3.567226,0.866786
447,-0.48797,3.5832,0.919369
448,-0.937375,1.422542,-0.020232
449,0.468922,1.361226,-0.192374
450,0.405048,1.382681,-0.207576
451,1.740591,0.602714,-0.378536
452,0.117637,-0.01767,0.039
453,-0.158249,-0.223549,0.175312
454,-0.602968,-0.207248,0.845722
455,-1.134807,-1.014568,0.536388
456,-1.171917,-1.251408,0.545781
457,-1.607368,-1.749966,0.377944
458,-1.360537,-1.708317,0.089288
459,-0.870702,-1.339406,-0.00298
460,0.679636,-0.183006,-1.316746
461,1.215999,0.002733,-0.516406
462,1.608124,0.136665,0.434859
463,-0.059039,2.572568,-1.312568
464,-1.269973,3.496507,-0.379502
465,-0.956479,-0.935499,1.241751
466,0.12101,0.844441,0.091327
467,0.088531,3.079162,0.272049
468,1.12333,0.844073,0.712474
469,0.767363,0.138798,0.047086
470,-0.146891,0.445627,-0.299829
471,-0.629654,0.882008,-0.204799
472,-0.947273,0.306583,-0.286767
473,-0.049504,-0.190989,-0.327059
474,0.818493,-0.67464,-0.147073
475,0.974744,-1.206733,-0.090053
476,0.713538,-1.467741,-0.316701
477,0.45545,-1.429553,-0.61937
478,0.200992,-0.818604,-0.347284
479,0.074639,-0.651209,-0.076975
480,-0.086745,-0.559755,-0.016837
481,-0.076148,-0.166323,0.56374
482,-0.565921,0.932459,-0.495901
483,-0.979554,4.024245,0.412304
484,-1.036765,1.148813,0.096263
485,0.265192,1.046013,0.054719
486,0.767892,0.9497,0.003098
487,1.159509,0.337179,-0.133936
488,0.261132,-0.224304,0.008507
489,-0.109251,-0.336677,0.232594
490,-0.779279,-0.580393,0.408217
491,-0.831752,-0.763507,0.480731
492,-0.726716,-0.936324,0.337494
493,-0.783448,-1.212328,0.133762
494,-0.529481,-1.221892,-0.25944
495,-0.137946,-1.076294,-0.410771
496,0.542141,-0.710449,-0.247902
497,0.986204,0.008156,0.025556
498,0.209736,1.391245,-0.656353
499,-0.948984,4.834739,0.752508
500,-0.232368,-0.704062,0.352763
501,-0.093586,-0.495133,-0.023106
502,-0.969802,0.790016,0.436746
503,-0.239713,1.059108,0.537759
504,0.098859,0.538592,0.48251
505,0.063431,0.037095,0.113771
506,0.01395,0.024561,0.089967
507,0.075162,0.002582,0.064332
508,0.12939,-0.16913,-0.245892
509,0.279369,-0.218124,-0.39394
510,0.077247,-0.596062,-0.347717
511,0.22647,-0.873925,-0.307366
512,0.336688,-0.763651,-0.257974
513,0.436939,-0.753736,-0.079755
514,0.385162,-0.755629,0.004253
515,0.25499,-0.648638,0.0095
516,0.191901,-0.618233,0.048746
517,-0.205632,2.392292,-0.679378
518,-1.927619,1.870577,0.828509
519,-1.019905,0.098297,0.591587
520,-0.23508,1.055445,-0.403334
521,0.018261,1.279569,-0.261259
522,0.125583,0.463809,0.020948
523,-0.000801,0.145942,0.0871
524,-0.316591,0.057655,0.147227
525,-0.409912,-0.149005,0.226166
526,-0.453255,-0.367485,0.257363
527,-0.468172,-0.469342,0.23954
528,-0.494913,-0.637064,0.223969
529,-0.543221,-0.85961,0.188076
530,-0.560195,-0.93126,0.108521
531,-0.561603,-0.943916,0.031913
532,-0.467352,-0.763547,-0.022252
533,-0.283947,-0.325942,-0.08317
534,0.127687,0.054594,-0.095314
535,0.728705,0.195036,0.138367
536,1.08697,-0.189431,0.17568
537,0.833472,-0.288217,-0.11054
538,-0.09901,0.304656,0.033848
539,-0.661743,2.328428,0.31547
540,0.02217,0.908758,0.326452
541,-0.199951,0.233056,-0.531455
542,-1.245737,0.319314,0.149701
543,-1.18109,0.094851,0.238777
544,-0.772931,0.467818,0.447758
545,-0.259663,0.557238,0.537103
546,-0.138788,0.30809,0.495671
547,-0.02976,0.009312,0.285127
548,-0.244384,0.013297,-0.069797
549,-0.352497,-0.032222,-0.061379
550,-0.436899,-0.130472,-0.042809
551,-0.312374,-0.201729,-0.07112
552,-0.172277,-0.184603,0.113518
553,0.057947,-0.089057,0.242138
554,0.094301,-0.055912,0.151728
555,0.117474,-0.088843,0.010661
556,0.092868,-0.185964,-0.05427
557,0.101097,-0.189362,-0.068772
558,0.094964,-0.16644,-0.154861
559,0.07712,-0.117332,-0.216622
560,0.116932,0.012471,-0.435843
561,0.007382,0.223062,-0.421298
562,-0.233698,0.611837,-0.206565
563,-0.172014,0.347007,-0.183138
564,-0.079798,0.340239,-0.162842
565,-0.084013,0.607094,-0.026606
566,0.015255,0.597576,-0.106582
567,0.126537,0.576489,-0.183409
568,0.03656,0.326095,-0.056674
569,-0.14572,-0.017777,-0.043078
570,-0.147534,-0.11738,-0.015278
571,-0.23811,-0.268656,-0.109664
572,-0.248711,-0.275614,-0.125195
573,-0.222503,-0.248824,-0.079497
574,-0.154678,-0.313371,0.057257
575,-0.14912,-0.404592,0.060333
576,-0.098326,-0.43281,0.033706
577,-0.009186,-0.389235,-0.059822
578,0.123133,-0.37458,-0.151855
579,0.242027,-0.353674,-0.211877
580,0.276034,-0.39451,-0.173824
581,0.307583,-0.530591,-0.108049
582,0.405315,-0.644116,-0.07923
583,0.516843,-0.6535,0.151065
584,-0.086881,-0.120216,-0.10243
585,-0.15095,1.646167,-1.021418
586,0.071127,0.78106,-0.057485
587,-0.201769,-0.062045,0.267794
588,-0.319804,0.009425,0.324547
589,-0.344005,0.235976,0.190442
590,0.042982,0.439795,0.071691
591,0.229785,0.397102,0.081592
592,0.327626,0.212837,-0.021958
593,0.013961,-0.062136,-0.029782
594,-0.04607,-0.078488,-0.034132
595,0.013043,-0.082979,-0.025171
596,0.236841,-7.30E-05,-0.143747
597,0.325959,0.057628,-0.240063
598,0.438594,-0.020035,-0.248428
599,0.414427,-0.089786,-0.141286
600,0.380122,-0.060005,-0.112413
601,0.354138,-0.014177,-0.099761
602,0.498552,0.151219,-0.191839
603,0.63608,0.158761,-0.228869
604,0.827611,-0.001846,-0.620666
605,0.933692,-0.023792,-0.715703
606,1.051744,-0.189312,-0.438532
607,0.853672,-0.362381,-0.432259
608,0.705549,-0.322783,-0.546983
609,0.407106,-0.288103,-0.596875
610,-0.193728,1.517225,-0.840114
611,-0.437588,1.761882,-0.330076
612,-0.534919,1.511179,0.30789
613,0.049927,1.234191,0.141993
614,0.597621,1.282187,-0.274606
615,0.529204,1.03105,-0.302272
616,0.167915,0.698596,-0.139687
617,-0.134972,0.383414,-0.092234
618,-0.496793,0.06275,-0.215168
619,-0.402421,-0.209291,0.020044
620,-0.246878,-0.480436,0.30829
621,-0.523658,-0.915839,0.197552
622,-0.896761,-1.429207,0.445045
623,-1.0887,-2.083458,0.52596
624,-1.246007,-2.22347,0.4302
625,-0.56496,-1.349928,0.105585
626,0.243578,-0.837219,-0.290172
627,0.972234,-0.533813,0.084833
628,0.82664,-0.254129,0.38931
629,-0.605275,0.726797,-2.340829
630,-0.838274,2.071157,0.981457
631,-0.37676,3.045403,1.453558
632,0.451665,0.558855,-0.755347
633,0.231619,0.754796,0.026272
634,0.168702,1.375425,0.452802
635,0.145708,0.57569,0.074717
636,0.192544,0.844621,-0.282558
637,0.489753,1.427479,-0.60956
638,0.958827,0.101354,-0.720616
639,1.014295,-0.317199,-0.536127
640,0.682549,-0.656302,-0.260371
641,0.874872,-1.200175,-0.518703
642,0.890267,-1.386754,-0.442312
643,0.838027,-1.397798,-0.139448
644,0.420015,-0.899836,-0.469133
645,0.29035,-0.711181,-0.572646
646,0.119224,-0.550428,-0.35104
647,0.005661,-0.643428,-0.27471
648,-0.119798,-0.156167,0.082076
649,0.101163,2.586344,0.329263
650,-0.820357,3.128814,0.453183
651,-1.153623,1.680563,0.077571
652,0.417647,1.065762,-0.438219
653,1.030083,0.824612,-0.277498
654,1.148601,0.370512,0.178876
655,0.305625,-0.317583,0.014558
656,-0.429848,-0.297567,0.174077
657,-0.877909,-0.600293,0.45418
658,-1.22657,-1.121717,0.577331
659,-1.313296,-1.500425,0.622826
660,-1.378677,-2.121021,0.235822
661,-0.755943,-1.457239,-0.164331
662,-0.360292,-1.088455,-0.277905
663,0.759906,-0.435764,0.440161
664,0.669749,0.005635,0.091296
665,-0.564144,1.194023,-2.183757
666,-1.239533,3.080346,1.144729
667,-0.018771,0.69918,0.518006
668,0.556306,0.678844,0.024867
669,0.535082,1.149382,0.225264
670,0.494274,0.702954,0.103974
671,0.625297,0.867151,-0.050744
672,0.755455,1.003133,-0.175822
673,0.404817,0.367649,-0.615426
674,0.524743,-0.370724,-0.406774
675,0.550563,-0.688305,-0.343611
676,0.653651,-0.912315,-0.390955
677,0.757313,-1.251682,-0.368785
678,0.703222,-1.367854,-0.135796
679,0.766073,-1.289212,-0.133383
680,0.333415,-0.490087,-0.618169
681,0.137026,-0.381038,-0.45462
682,-0.293308,-0.548659,-0.530803
683,-0.267604,-0.280326,0.731636
684,-0.322367,0.468364,0.504586
685,-0.290694,3.166694,0.990128
686,-0.734114,2.950156,0.048138
687,-0.864819,1.26988,-0.282385
688,0.749278,1.274673,-0.10878
689,1.296382,0.735456,-0.409343
690,1.260878,0.133306,-0.216356
691,0.26312,-0.44452,0.263817
692,-0.481643,-0.475495,0.395568
693,-0.783844,-0.911576,0.520564
694,-1.111108,-1.490397,0.711662
695,-1.64577,-1.98162,0.410314
696,-1.40454,-1.871857,0.032779
697,-0.590016,-1.20467,-0.463898
698,0.637925,-0.24693,-1.248466
699,1.474076,-0.148364,0.503664
700,1.275207,-0.179438,0.91978
701,-0.64418,-0.318122,-1.193335
702,-1.359258,2.046948,1.789329
703,-0.080133,0.341896,0.418745
704,0.66692,1.003507,-0.277648
705,-0.265816,0.771692,0.89839
706,-0.260797,1.012163,0.180847
707,-0.035277,1.256921,0.157051
708,0.522668,1.09152,-0.54569
709,0.385616,0.247273,-0.699226
710,0.464308,-0.047571,-0.387503
711,0.66362,-0.374063,-0.124902
712,0.959004,-1.190208,-0.132239
713,1.04953,-1.382125,-0.27471
714,1.022958,-1.477427,-0.35142
715,0.895523,-1.076352,-0.310712
716,0.50641,-0.633722,-0.697759
717,0.365077,-0.405311,-0.687363
718,-0.135725,-0.116929,-0.062389
719,-0.481582,0.913498,-0.456007
720,-0.546281,1.561859,0.084328
721,-1.116664,1.7756,0.560876
722,-0.0121,1.819214,-0.164537
723,0.393999,1.605141,0.028404
724,1.355935,0.695021,-0.051533
725,0.302325,0.135972,-0.129787
726,0.279738,0.151313,-0.098863
727,-0.456431,-0.340453,0.419441
728,-0.710311,-0.765293,0.620631
729,-1.015214,-1.374982,0.543678
730,-1.335351,-1.965909,0.45669
731,-1.355197,-2.151675,0.220388
732,-0.755531,-1.464548,-0.287251
733,0.114221,-0.843258,-0.598139
734,1.186745,-0.47543,0.263921
735,1.149993,-0.128781,0.781848
736,-0.683072,0.789137,-1.91204
737,-1.091278,3.031306,2.016035
738,-0.308051,0.47397,0.820587
739,0.257424,0.41319,0.043693
740,0.135861,1.231285,0.288248
741,0.140319,0.897508,0.479637
742,0.340515,1.003262,0.240597
743,0.432787,0.80078,-0.429788
744,0.410022,0.565312,-0.623714
745,0.516032,-0.02064,-0.587661
746,0.439121,-0.811969,-0.309282
747,0.693625,-0.951591,-0.387741
748,0.767228,-1.357702,-0.102414
749,0.765609,-1.477004,-0.011178
750,0.633763,-1.110056,-0.552187
751,0.361416,-0.562264,-0.842023
752,-0.005578,-0.311033,-0.587097
753,-0.270065,-0.570955,0.446128
754,-0.12,1.175122,-0.564053
755,-0.146573,2.79597,0.760067
756,-0.337894,4.594615,0.555864
757,-0.692843,1.25965,-0.401868
758,0.673112,1.212716,-0.140226
759,1.169138,0.961946,-0.202571
760,1.072393,0.332623,0.155341
761,0.250912,-0.135063,0.228233
762,-0.171499,-0.245502,0.240286
763,-0.999548,-0.680639,0.540103
764,-1.312672,-1.290918,0.612506
765,-1.525771,-1.813945,0.637649
766,-1.315655,-1.980176,0.222625
767,-0.581959,-1.336078,-0.248945
768,0.172849,-0.705872,-0.567015
769,1.01204,-0.329886,0.050988
770,1.083048,-0.025037,0.956336
771,-0.439765,0.416633,-0.685242
772,-1.266219,2.053522,1.097897
773,-0.05095,0.187546,0.499342
774,0.539326,0.87634,0.10819
775,1.147512,1.751878,-0.09276
776,0.097654,0.603627,0.267188
777,-0.086467,0.985315,0.237463
778,-0.007002,1.145488,-0.134502
779,0.363607,0.548982,-0.679838
780,0.492114,0.181308,-0.668806
781,0.80675,-0.558301,-0.239535
782,0.873676,-0.991985,-0.274109
783,0.925877,-1.220445,-0.234467
784,0.870743,-1.515454,-0.100687
785,0.621514,-1.06732,-0.496138
786,0.420149,-0.797553,-0.543807
787,0.288696,-0.391095,-0.591603
788,-0.22443,-0.372279,0.341295
789,-0.43347,0.042977,0.378367
790,-0.215476,1.210941,-0.261339
791,-0.95174,2.526155,0.515106
792,-0.732461,1.372614,-0.309196
793,0.537301,1.213243,-0.041374
794,1.138363,1.018259,-0.009117
795,1.045004,0.277557,-0.144031
796,0.156357,-0.039198,0.267184
797,-0.343314,-0.386251,0.365166
798,-0.714244,-0.815644,0.462015
799,-1.081723,-1.440206,0.554107
800,-1.180281,-1.668962,0.457695
801,-1.259479,-1.792892,0.309801
802,-0.893812,-1.535726,-0.332676
803,-0.076423,-0.907352,-0.660799
804,0.382062,-0.629285,-0.563501
805,0.861291,-0.063314,0.307969
806,-0.967246,1.267981,-2.938729
807,-1.025238,2.071203,1.962103
808,-0.301127,0.588758,0.718125
809,0.880456,0.767375,-0.350348
810,0.597066,1.119731,0.280276
811,0.167771,0.473146,0.58381
812,0.213975,1.124444,0.109374
813,0.289482,1.113225,-0.37741
814,0.280164,0.691671,-0.678376
815,0.3503,0.100905,-0.524455
816,0.409951,-0.456007,-0.203136
817,0.68273,-1.021295,-0.231552
818,0.953987,-1.418336,-0.328089
819,0.962948,-1.474589,-0.259517
820,0.928514,-1.165793,-0.368253
821,0.262855,-0.428762,-0.753515
822,0.068702,-0.330832,-0.532749
823,-0.270568,-0.505524,0.007541
824,-0.414232,0.121765,0.592048
825,-0.123207,1.624609,-0.020984
826,-0.757777,3.880858,0.624521
827,-0.617144,1.378378,-0.181595
828,0.335293,1.30104,-0.153234
829,1.082085,0.912953,-0.188909
830,0.696653,0.212382,-0.030766
831,0.393368,-0.026537,0.15429
832,-0.279851,-0.326803,0.3621
833,-0.749243,-0.843966,0.520877
834,-0.915286,-1.066462,0.560245
835,-1.243332,-1.673632,0.582654
836,-1.354794,-1.960519,0.139702
837,-1.044761,-1.713373,-0.076178
838,0.024594,-0.761518,-0.701552
839,0.907489,-0.30771,0.036828
840,1.453752,-0.087518,1.10349
841,-0.601156,0.351027,-0.883289
842,-1.620122,2.548742,-2.775728
843,-0.833319,2.099656,1.88044
844,0.525485,0.368491,-0.405305
845,-0.204755,0.89735,0.094337
846,-0.197978,1.012388,0.442209
847,-0.227697,1.115529,0.392879
848,0.389503,1.310995,-0.255404
849,0.477642,1.052087,-0.603813
850,0.560864,-0.210303,-0.457855
851,0.614514,-0.561629,-0.347439
852,0.794128,-0.997601,-0.425401
853,1.004658,-1.095564,-0.202541
854,0.955976,-1.397745,-0.030907
855,0.799333,-1.29282,-0.198095
856,0.452811,-0.952995,-0.391168
857,0.330425,-0.597675,-0.713203
858,-0.031494,-0.535927,-0.541445
859,-0.221053,-0.632046,0.05059
860,-0.351713,0.22698,0.599287
861,-0.523694,1.06777,-0.399482
862,-0.710003,2.777802,0.555096
863,-0.394709,1.227496,-0.3857
864,0.657,1.364473,-0.223062
865,1.178493,0.974264,-0.171485
866,0.915468,0.232273,-0.279274
867,0.270911,0.115537,0.342566
868,-0.235023,-0.237746,0.464758
869,-0.946553,-0.819007,0.483823
870,-1.238099,-1.164814,0.600487
871,-1.511528,-1.783054,0.750302
872,-1.407712,-2.083375,-0.028658
873,-0.960481,-1.73362,-0.272042
874,-0.03502,-0.905705,-0.532978
875,0.560346,-0.427548,-0.892686
876,1.165163,-0.346645,0.420667
877,0.528375,-0.062092,0.128441
878,-1.098868,3.418182,1.57934
879,-0.257946,1.597123,1.769989
880,0.613088,-0.182919,0.094293
881,0.030561,1.303079,0.034941
882,0.062737,0.966456,0.526895
883,-0.407593,0.561616,0.493628
884,-0.176404,0.904245,-0.023152
885,-0.037386,1.059474,-0.492912
886,0.38726,0.222795,-0.574881
887,0.754677,-0.433855,-0.301876
888,0.891899,-0.726019,-0.241146
889,1.045579,-1.146792,-0.162029
890,0.949088,-1.47974,-0.212071
891,0.930699,-1.462514,-0.334469
892,0.507533,-0.824915,-0.581664
893,0.282962,-0.539643,-0.484493
894,0.049408,-0.500041,-0.067558
895,-0.183847,0.1247,0.399084
896,-0.170289,1.448413,-0.315458
897,-0.431652,2.737764,0.636077
898,-0.722166,1.553998,-0.018076
899,0.115247,1.532195,-0.031926
900,0.691581,1.264695,0.00597
901,1.304221,0.479747,-0.111108
902,0.739449,0.330424,-0.174212
903,-0.103074,0.058166,0.346492
904,-0.479722,-0.465555,0.399892
905,-0.87881,-1.025223,0.346084
906,-1.151927,-1.571571,0.547081
907,-1.291349,-1.957994,0.52697
908,-1.125375,-1.903075,-0.002516
909,-0.482459,-1.241572,-0.400445
910,0.290917,-0.623401,-0.759009
911,1.356143,-0.050487,0.574996
912,0.877817,1.031678,-0.137339
913,-0.753972,3.830618,-0.647357
914,-0.696317,-0.079481,0.976322
915,-0.517284,-0.175155,0.65731
916,0.065244,1.305075,0.047438
917,0.517408,1.032481,0.282987
918,0.620146,0.555991,0.543487
919,0.169095,0.965596,-0.205917
920,0.180053,0.409893,-0.470968
921,0.283805,0.192308,-0.48692
922,0.519758,-0.336782,-0.416002
923,0.718867,-0.734848,-0.446682
924,0.811514,-0.804619,-0.350442
925,0.906907,-1.406842,-0.140451
926,0.893218,-1.510379,-0.084282
927,0.687303,-1.244628,-0.268024
928,0.275257,-0.437536,-0.701689
929,-0.062039,-0.504797,-0.18746
930,-0.09666,-0.496697,0.667304
931,-0.176774,0.908422,-0.291087
932,-0.022136,2.198742,0.347338
933,-0.853836,1.739103,0.207002
934,-0.696402,1.54238,-0.331864
935,1.288392,1.029625,-0.122177
936,1.702732,0.588972,-0.062028
937,0.386379,-0.017955,0.061674
938,-0.004557,-0.153464,0.571406
939,-0.22289,-0.271466,0.680229
940,-1.377075,-1.097623,0.451635
941,-1.129954,-1.547304,0.55256
942,-1.391638,-1.805339,0.470972
943,-1.441217,-1.81837,-0.097304
944,-0.510247,-1.042584,-0.431017
945,-0.092225,-0.734172,-0.697932
946,1.57042,-0.037425,0.8977
947,0.485911,0.23761,-0.052264
948,-0.806134,1.753948,-2.395345
949,-0.397942,0.694426,1.808975
950,1.07898,0.621301,-0.454129
951,1.120375,1.35703,-0.324583
952,-0.366694,0.626437,0.781632
953,-0.473083,0.734032,0.320054
954,-0.162937,0.974939,-0.196721
955,0.270709,0.910581,-0.377167
956,0.272471,0.403286,-0.494887
957,0.419047,-0.161416,-0.453604
958,0.841762,-0.723022,-0.223984
959,1.102208,-1.108846,-0.146391
960,1.023551,-1.425144,-0.076082
961,0.866276,-1.465485,-0.485622
962,0.463541,-0.941779,-0.771777
963,0.125999,-0.507636,-0.344141
964,-0.155536,-0.527755,-0.154293
965,-0.003766,-0.147553,0.449508
966,-0.191594,0.958872,-0.676501
967,-0.58116,4.519949,0.53787
968,-0.430693,0.91649,-0.117668
969,0.065633,0.965667,-0.186946
970,1.038524,0.339658,-0.175258
971,0.934653,0.174793,-0.183482
972,0.564986,0.179398,0.087309
973,-0.424232,-0.414706,0.342846
974,-0.638811,-0.551679,0.483555
975,-1.199775,-1.360929,0.515083
976,-1.392523,-1.917074,0.451265
977,-1.40287,-2.150393,0.34742
978,-0.418592,-1.296884,-0.267679
979,0.343226,-0.640927,-0.583256
980,1.469668,-0.27993,1.20322
981,0.59587,0.224403,0.63448
982,-1.372682,3.395134,-1.622684
983,-0.808077,1.268709,1.585601
984,0.432521,-0.051247,0.539131
985,0.498502,0.846668,-0.023761
986,0.361367,1.185744,0.072643
987,0.764889,1.072579,0.237206
988,0.656144,0.81345,-0.06021
989,0.666665,0.867193,-0.286018
990,0.344209,0.207786,-0.381301
991,0.158922,-0.3669,-0.463164
992,0.203416,-0.684438,-0.511379
993,0.620611,-0.956445,-0.273334
994,0.72983,-1.465038,0.032526
995,0.772145,-1.414868,-0.251786
996,0.554379,-1.047161,-0.5937
997,0.307852,-0.5388,-0.424052
998,0.091606,-0.460615,-0.47842
999,0.133502,-0.374215,0.51892
1000,-0.119176,0.885395,0.009939
1001,0.267591,4.598357,0.499825
1002,-0.342665,1.537573,0.196467
1003,-0.476418,1.204811,-0.074885
1004,0.943331,1.10938,-0.093617
1005,1.361154,0.559592,-0.264242
1006,0.977631,0.478867,0.366432
1007,-0.119323,0.010226,0.282426
1008,-1.87859,-0.419969,0.11695
1009,-1.421225,-0.880414,0.426258
1010,-1.437079,-1.731396,0.67555
1011,-1.442665,-1.962404,0.557886
1012,-1.061547,-1.87669,0.084988
1013,-0.133699,-0.963447,-0.379438
1014,0.116924,-0.668194,-0.805372
1015,1.58266,0.382882,1.157817
1016,1.035171,1.143524,1.209058
1017,-0.427923,0.907474,-1.087756
1018,-0.253719,-1.389532,1.063283
1019,-0.021904,-0.944238,1.351643
1020,-0.085248,2.610337,-0.18505
1021,0.620816,1.175771,0.639432
1022,0.34197,0.632302,0.178071
1023,0.33319,0.942237,-0.158984
1024,0.034478,0.621087,-0.409781
1025,0.165459,0.283515,-0.296502
1026,0.662038,-0.699935,-0.367126
1027,1.019403,-0.984961,-0.263614
1028,1.127564,-1.356267,0.017901
1029,1.0679,-1.633225,0.117565
1030,0.680803,-1.313332,-0.472865
1031,0.315694,-0.686464,-0.492444
1032,0.202084,-0.576941,-0.21112
1033,0.097516,-0.583489,0.003419
1034,0.052571,0.002978,0.33014
1035,-0.000702,0.616106,-0.01133
1036,-0.91528,2.96673,0.448766
1037,-1.05299,2.288517,0.522574
1038,0.140851,1.858971,0.056847
1039,0.850876,1.054048,-0.099227
1040,1.006345,0.634328,0.002195
1041,0.234514,0.314546,-0.051761
1042,-0.171587,-0.104465,0.265971
1043,-0.339143,-0.356453,0.486961
1044,-0.693656,-0.989933,0.343059
1045,-1.071038,-1.375815,0.409938
1046,-1.37323,-1.981512,0.501944
1047,-1.270323,-2.11569,0.192719
1048,-0.706566,-1.526687,-0.185885
1049,-0.020564,-0.853414,-0.295995
1050,0.702408,-0.399925,-0.100108
1051,1.029236,0.193344,0.069182
1052,-0.17569,2.98811,-1.820309
1053,-1.158158,2.566081,1.238167
1054,-0.508772,-0.851135,1.191286
1055,0.268984,0.251357,-0.06817
1056,0.144681,1.811346,0.21386
1057,0.278649,1.328771,0.63304
1058,0.074634,1.02521,-0.438649
1059,0.012635,0.872198,-0.563817
1060,0.460018,-0.075467,-0.276367
1061,0.542302,-0.317197,-0.226279
1062,0.90874,-0.846321,-0.536973
1063,1.122285,-1.033539,-0.425062
1064,1.165117,-1.277271,-0.070447
1065,1.160186,-1.435278,0.03451
1066,0.509603,-0.848464,-0.629479
1067,0.334125,-0.515448,-0.65686
1068,-0.053072,-0.221171,-0.467387
1069,-0.508766,0.283703,0.723555
1070,-0.454906,0.697397,-0.319226
1071,-0.577826,4.12392,0.878572
1072,-0.885341,1.610934,-0.054115
1073,0.034915,1.216127,-0.057324
1074,0.642975,0.936301,0.011304
1075,0.872625,0.195633,-0.383788
1076,0.488124,0.389249,-0.151543
1077,0.209829,0.28967,0.246774
1078,-0.722264,-0.492149,0.5853
1079,-1.473728,-1.684701,0.777862
1080,-1.498628,-1.916443,0.778097
1081,-1.707048,-2.148015,0.327602
1082,-1.028632,-1.7242,-0.226957
1083,-0.517676,-1.220908,-0.356225
1084,0.516171,-0.378474,-0.958322
1085,1.574092,0.028136,1.336299
1086,0.593086,-0.287226,0.260555
1087,-1.913711,1.784617,-1.513662
1088,-0.550011,3.158534,2.055012
1089,1.39086,0.719151,-0.26812
1090,0.710677,0.212286,-0.465666
1091,-0.439941,0.660317,0.672224
1092,-0.416126,0.85077,0.738125
1093,-0.521431,1.247434,-0.121385
1094,0.246794,1.026293,-0.647135
1095,0.67323,0.663101,-0.455189
1096,0.465125,-0.141354,-0.385293
1097,0.749443,-0.934873,-0.198545
1098,1.077398,-1.106248,-0.103002
1099,1.132418,-1.478731,-0.151448
1100,0.930794,-1.451106,-0.39032
1101,0.618867,-1.01614,-0.408077
1102,0.38185,-0.530723,-0.71774
1103,-0.025033,-0.456247,-0.265577
1104,-0.255416,-0.497765,0.171327
1105,-0.512643,0.546267,0.271744
1106,-0.331239,3.105645,0.689167
1107,-0.793719,2.225016,0.261116
1108,-0.801481,1.441576,-0.306561
1109,0.467731,1.066523,-0.071071
1110,1.206516,0.682659,-0.021748
1111,0.71682,0.172211,-0.096272
1112,0.02799,-0.104974,0.499404
1113,-0.60158,-0.562548,0.284551
1114,-0.576534,-0.938808,0.359109
1115,-1.046178,-1.298337,0.400277
1116,-1.391297,-1.881543,0.455461
1117,-0.908006,-1.747556,-0.016656
1118,-0.543277,-1.516621,-0.226809
1119,0.574739,-0.406753,-1.176493
1120,1.867755,0.228576,0.863941
1121,1.539507,0.086625,0.985511
1122,-1.062115,1.765909,-1.550945
1123,-0.047557,-0.430323,1.83363
1124,0.065576,-0.802399,1.456689
1125,0.452437,2.092593,-0.326967
1126,0.139755,0.938943,0.116402
1127,0.054276,0.658819,0.443878
1128,-0.039178,0.791341,-0.084984
1129,0.310472,0.674505,-0.30409
1130,0.381247,0.453626,-0.374636
1131,0.407523,0.013498,-0.465588
1132,0.962053,-0.831946,-0.265905
1133,0.942891,-0.952204,-0.389812
1134,0.953449,-1.262884,-0.050539
1135,0.764226,-1.385821,-0.027292
1136,0.437196,-1.115171,-0.418193
1137,0.318999,-0.598348,-0.671137
1138,-0.032748,-0.40526,-0.113649
1139,-0.119198,-0.529944,0.144011
1140,-0.057762,0.20944,0.638337
1141,-0.156988,2.269204,0.368353
1142,-0.602404,3.025511,0.434996
1143,-0.725484,1.420497,-0.348319
1144,0.494973,1.393387,-0.088046
1145,1.184562,0.8789,-0.090371
1146,0.77433,0.406162,-0.099126
1147,0.019617,-0.056227,0.050213
1148,-0.425921,-0.158888,0.605969
1149,-0.594488,-0.660349,0.52073
1150,-1.179189,-1.34184,0.319933
1151,-1.493092,-1.745121,0.311081
1152,-1.21276,-1.828542,0.078432
1153,-0.330317,-1.342378,-0.338796
1154,0.300875,-0.724942,-0.8086
1155,1.368134,-0.313902,1.046133
1156,0.845761,0.135414,0.327827
1157,-0.91239,2.442691,-0.010138
1158,-1.15434,1.407687,0.939338
1159,0.04853,0.614349,0.419466
1160,0.556104,1.24733,0.24927
1161,0.160337,0.647875,0.459277
1162,0.016216,0.643444,0.428896
1163,0.085708,0.903133,-0.09007
1164,-0.023909,1.098006,-0.435749
1165,0.243831,0.667577,-0.513881
1166,0.61803,0.290923,-0.373006
1167,0.981861,-0.922551,-0.108578
1168,0.971283,-1.180947,-0.189792
1169,0.981703,-1.392121,-0.273955
1170,0.942821,-1.246145,-0.376316
1171,0.611601,-0.914765,-0.455257
1172,0.419471,-0.770063,-0.617233
1173,-0.018631,-0.497051,0.045621
1174,-0.256621,-0.169595,0.355363
1175,-0.458508,0.389913,0.167388
1176,-0.374326,1.874587,0.190767
1177,-1.070887,1.712411,0.335504
1178,-0.161488,1.569397,-0.20584
1179,0.708502,1.294752,-0.001407
1180,1.096233,0.770274,-0.058349
1181,0.941966,0.549044,-0.06678
1182,0.056208,0.072696,0.086867
1183,-0.522772,-0.32555,0.344684
1184,-0.612788,-0.587755,0.475707
1185,-0.658334,-1.114856,0.587008
1186,-1.01553,-1.791201,0.498664
1187,-1.098619,-1.923504,0.376553
1188,-0.636259,-1.588832,-0.232345
1189,0.116424,-0.925813,-0.683509
1190,0.881394,-0.493326,0.079504
1191,1.190198,-0.204967,0.890243
1192,-0.134151,-0.19484,-0.60037
1193,-1.834419,3.557437,0.516832
1194,0.194273,1.513684,1.935658
1195,0.506091,-0.638661,0.195749
1196,0.226314,1.015189,-0.776949
1197,-0.453633,0.931234,0.610621
1198,-0.097751,0.938607,0.575573
1199,0.089075,0.921377,-0.143087
1200,0.229536,0.871465,-0.478574
1201,0.450808,0.458969,-0.534229
1202,0.654062,-0.109801,-0.274346
1203,0.811868,-0.707919,-0.132455
1204,0.903525,-1.073181,-0.125489
1205,0.91016,-1.315674,-0.236047
1206,0.837732,-1.401132,-0.384409
1207,0.519803,-1.068409,-0.389335
1208,0.22809,-0.696448,-0.532911
1209,0.070819,-0.513104,-0.458146
1210,-0.242443,-0.111194,0.665274
1211,-0.159594,0.94976,-0.530704
1212,-0.16215,2.509273,0.67254
1213,-0.966237,1.542296,-0.116472
1214,-0.881444,1.251405,-0.329663
1215,0.370815,1.151937,-0.131633
1216,1.277535,0.714548,-0.115104
1217,0.916099,0.460867,-0.081581
1218,0.332051,0.173441,-0.039533
1219,-0.568855,-0.424173,0.507802
1220,-0.589714,-0.576842,0.483251
1221,-0.704897,-0.980499,0.48194
1222,-1.117899,-1.514447,0.491345
1223,-1.123271,-1.594054,0.156088
1224,-0.923889,-1.56045,-0.103886
1225,0.134676,-0.781169,-0.799647
1226,1.155822,-0.368816,0.518418
1227,1.516806,-0.155774,1.115671
1228,0.032116,-0.583929,-0.446366
1229,-1.675712,1.84489,-1.822024
1230,-0.216095,2.016845,2.038458
1231,0.699458,0.62736,0.648612
1232,0.91859,0.925931,-0.97604
1233,-0.405114,0.670531,0.768236
1234,-0.152018,0.679064,0.594194
1235,-0.031076,0.576231,0.228561
1236,0.662845,0.988744,-0.275591
1237,0.569102,0.793333,-0.465416
1238,0.543567,0.134815,-0.523829
1239,0.584991,-0.469077,-0.162156
1240,0.653877,-1.035225,-0.086578
1241,0.767722,-1.209022,-0.151399
1242,0.761552,-1.312411,-0.181983
1243,0.689986,-1.274526,-0.401175
1244,0.475076,-0.881205,-0.520539
1245,0.220045,-0.500028,-0.488422
1246,-0.078088,-0.385997,0.284667
1247,0.102564,0.974264,-0.276885
1248,0.037479,1.87007,0.276432
1249,-0.676879,3.054684,0.465158
1250,-0.302262,1.522341,-0.059584
1251,0.381005,1.306437,-0.044729
1252,0.682929,1.084289,-0.018774
1253,0.562825,0.512682,-0.12853
1254,0.047236,0.153655,-0.175063
1255,-0.278835,0.062923,0.283872
1256,-0.620062,-0.783328,0.396393
1257,-0.838488,-1.104394,0.335849
1258,-1.109876,-1.719964,0.415882
1259,-1.105132,-1.842108,0.280624
1260,-0.882476,-1.90794,-0.135439
1261,0.09267,-1.023877,-0.523248
1262,0.436502,-0.78555,-0.632233
1263,1.414506,-0.411784,0.865291
1264,0.541388,0.272762,-0.19958
1265,-0.23008,3.110896,0.864974
1266,-0.885746,-0.359772,0.784442
1267,0.351604,0.673239,0.004606
1268,0.381204,1.449193,0.018314
1269,0.33066,0.906996,0.42679
1270,0.204199,0.953474,0.005711
1271,0.046956,1.004654,-0.389915
1272,0.10518,0.545677,-0.569387
1273,0.518759,0.00631,-0.377834
1274,0.709473,-0.596302,-0.263433
1275,0.913309,-1.016903,-0.217508
1276,0.910109,-1.083482,-0.204983
1277,0.941276,-1.35659,-0.26406
1278,0.75612,-1.17745,-0.38674
1279,0.369342,-0.761207,-0.471547
1280,0.144609,-0.513351,-0.364007
1281,-0.167049,-0.546487,-0.290076
1282,-0.346449,-0.066704,0.926493
1283,-0.336093,3.375595,0.719922
1284,-0.758908,4.325172,0.699383
1285,-0.827477,1.36096,0.070644
1286,0.962729,1.260419,-0.089865
1287,1.403728,1.044774,-0.001345
1288,1.548755,0.796635,-0.041169
1289,0.232771,-0.237121,0.094156
1290,-0.2754,-0.298201,0.73738
1291,-0.52664,-0.348962,0.597372
1292,-0.891816,-1.065329,0.571713
1293,-1.205809,-1.616981,0.628889
1294,-1.327879,-1.790377,0.515416
1295,-1.053785,-1.711059,-0.048756
1296,-0.234699,-1.038508,-0.419766
1297,0.124571,-0.718199,-0.692355
1298,1.605704,0.067996,0.809499
1299,1.194296,-0.090407,0.730487
1300,-1.502002,3.468007,0.715786
1301,-1.063263,1.758519,1.760285
1302,-0.309726,-0.569393,0.706448
1303,0.840566,2.061245,-0.207613
1304,-0.092369,1.175087,0.246133
1305,0.175808,0.721723,0.540627
1306,0.27269,0.960333,-0.163108
1307,0.135882,0.982577,-0.36955
1308,0.323948,0.30903,-0.434483
1309,0.688775,-0.230816,-0.240133
1310,0.846223,-0.610831,-0.118051
1311,0.963517,-1.01643,-0.217837
1312,1.022529,-1.366756,-0.061543
1313,0.868332,-1.314849,-0.324861
1314,0.479887,-1.006625,-0.515679
1315,0.248933,-0.539571,-0.552448
1316,-0.090176,-0.469877,0.227166
1317,-0.213018,0.105246,0.50768
1318,0.133955,1.544772,-0.044923
1319,-1.029631,3.221014,0.814177
1320,-0.980582,1.332399,-0.020579
1321,-0.226303,1.372566,-0.084809
1322,0.714356,0.889665,0.034792
1323,1.164546,0.471291,-0.03773
1324,0.469292,0.190656,-0.166484
1325,-0.062406,-0.079394,0.412825
1326,-0.4147,-0.411299,0.384532
1327,-0.701405,-0.926878,0.370851
1328,-0.995411,-1.465829,0.490478
1329,-1.096434,-1.659468,0.439327
1330,-1.093351,-1.743237,-0.10302
1331,0.150138,-0.942011,-0.612881
1332,0.600813,-0.71802,-0.548861
1333,1.177083,-0.4548,0.560565
1334,-0.416034,0.542359,-2.585765
1335,-1.281657,2.779271,-2.609296
1336,-1.286513,3.540521,2.412708
1337,0.899496,0.397787,0.216234
1338,0.698486,0.722788,-0.367671
1339,-0.355067,0.785422,0.318514
1340,-0.254878,0.906229,0.475958
1341,0.194991,0.604575,0.225658
1342,0.339204,1.017662,-0.470199
1343,0.238086,0.702666,-0.433697
1344,0.505758,0.051337,-0.442291
1345,0.744011,-0.811583,-0.305613
1346,0.791066,-0.921031,-0.236273
1347,0.906141,-1.286535,-0.096812
1348,0.786741,-1.461034,-0.262824
1349,0.595067,-1.322885,-0.301898
1350,0.329387,-0.910371,-0.373207
1351,0.016464,-0.597604,-0.111926
1352,-0.094909,-0.617953,0.27108
1353,-0.105814,-0.094014,0.806911
1354,0.127038,2.553716,0.648749
1355,-0.682184,4.314189,0.572293
1356,-0.968996,1.356776,-0.070246
1357,0.180253,1.143516,-0.068324
1358,1.307521,0.770657,0.018646
1359,1.279525,0.353938,-0.121406
1360,0.402606,0.119075,-0.132021
1361,-0.292464,-0.0543,0.446363
1362,-0.605298,-0.419642,0.359746
1363,-0.962675,-1.007196,0.334244
1364,-1.22288,-1.485966,0.485949
1365,-1.198447,-1.730308,0.411463
1366,-0.816141,-1.699273,-0.03335
1367,-0.047515,-1.106036,-0.294078
1368,0.639991,-0.768051,0.084955
1369,1.183981,-0.300601,0.592455
1370,-0.103856,0.971692,-1.322638
1371,-0.472869,3.910458,1.158107
1372,-0.489696,0.002749,1.067646
1373,0.09582,-0.206507,0.287337
1374,-0.144218,1.209223,0.332718
1375,-0.402296,1.045272,0.316777
1376,0.114166,0.63643,0.442897
1377,0.393585,0.736913,-0.107169
1378,0.331203,0.734002,-0.284521
1379,0.339038,0.169532,-0.308184
1380,0.587624,-0.094631,-0.245034
1381,0.689163,-0.394902,-0.219487
1382,0.63982,-0.907548,-0.233477
1383,0.647433,-1.256151,-0.239537
1384,0.642193,-1.343945,-0.252764
