,userAcceleration.x,userAcceleration.y,userAcceleration.z
0,0.064874,-0.846249,-0.171922
1,0.239188,-0.36185,0.069375
2,0.207503,0.522841,0.315403
3,0.277697,1.411168,-0.007291
4,0.377606,3.610844,-0.071937
5,0.198641,2.599785,-0.207523
6,0.770178,1.466129,0.295507
7,1.370511,1.08555,-0.018719
8,1.080228,0.546516,-0.089943
9,0.466132,0.199527,0.373581
10,-0.514246,-0.468474,0.597849
11,-0.976103,-1.407222,0.987324
12,-0.92676,-1.421503,1.151949
13,-1.04372,-1.325281,1.922835
14,-1.131604,-1.178095,1.702513
15,-0.195961,-0.196319,-0.019396
16,1.206761,0.587061,-1.934446
17,1.619557,0.05925,-0.065253
18,1.010755,-0.754126,0.322846
19,-0.457383,1.35889,0.301958
20,-1.06702,-0.771684,0.351064
21,-1.517599,-1.488584,-0.604094
22,-0.200418,0.90594,1.303458
23,0.747322,1.635623,-0.296875
24,0.601975,1.338072,0.212578
25,1.363861,1.152966,0.286323
26,1.600001,1.284754,-0.336189
27,1.282665,0.829342,-0.546621
28,0.806392,0.812205,0.040028
29,-0.00089,0.221655,0.062995
30,-0.35965,-0.138269,0.007695
31,-0.514506,-1.060625,-1.128576
32,0.598485,-1.198405,-0.710865
33,0.449517,-1.371507,-0.691825
34,0.122736,-0.97369,-0.370335
35,0.025427,-1.029067,-0.524259
36,0.099043,-1.070115,-0.156413
37,0.13201,-0.963839,-0.117163
38,0.088694,-0.463941,0.11627
39,0.362528,-0.099206,0.282876
40,0.400735,0.499922,0.326305
41,0.460025,2.336427,-0.31194
42,0.476739,3.869153,-0.096808
43,0.408661,1.883388,-0.015668
44,1.176724,1.465525,0.059244
45,1.427295,0.962834,-0.139455
46,0.920891,0.292279,0.128853
47,-0.055481,-0.167327,0.423715
48,-0.960631,-1.011052,0.753288
49,-0.98821,-1.357134,1.081
50,-1.031237,-1.26259,1.23956
51,-1.158225,-1.277762,1.783753
52,-1.145865,-1.006557,1.345051
53,-0.68219,-0.382976,0.17141
54,0.717843,0.416682,-1.535966
55,2.004945,0.602324,-0.794186
56,0.667212,-1.158229,1.421831
57,-0.904587,-1.308192,1.782458
58,-0.388007,1.131184,0.633759
59,-0.492423,1.058143,0.203382
60,-0.473517,0.054301,1.225655
61,-0.056207,0.827294,0.902106
62,0.466966,1.465596,0.850676
63,2.28988,1.649515,0.157734
64,2.077619,0.697873,-0.836233
65,1.069071,0.614079,-0.934415
66,0.688063,0.600886,0.223543
67,-0.668654,-0.205764,-0.598155
68,-0.642441,-0.210183,-0.638407
69,-0.727308,-0.95045,-0.98548
70,0.604024,-1.197077,-0.537649
71,0.437511,-1.183379,-0.890378
72,0.041405,-1.080184,-0.493605
73,-0.069595,-1.203655,-0.063053
74,-0.080496,-1.232148,0.045677
75,0.197191,-0.654245,-0.038712
76,0.309741,0.058941,0.046173
77,0.34604,2.082867,-0.215579
78,0.422355,3.504446,-0.070703
79,0.081681,2.90749,-0.063255
80,0.429963,1.632721,0.27283
81,1.093938,1.325557,0.106722
82,1.179898,0.75894,-0.170488
83,0.757504,0.225185,0.140509
84,0.016154,-0.241077,0.356608
85,-0.679689,-0.827963,0.869854
86,-0.875984,-1.206712,1.297374
87,-1.040581,-1.486963,1.674566
88,-1.125794,-1.261343,1.624015
89,-1.026057,-0.848159,0.625519
90,-0.199423,-0.137319,-0.730969
91,1.393437,0.582733,-1.465363
92,1.417583,-0.068791,0.338957
93,-0.140307,-1.125228,1.704351
94,-0.809009,0.198721,1.05737
95,-0.29579,0.548462,0.325812
96,-0.889643,-0.642796,1.085013
97,-0.45956,0.298385,0.805337
98,0.043165,1.287955,0.121465
99,0.245256,0.983211,0.478948
100,0.808385,1.18097,0.692044
101,2.277607,1.558092,0.134026
102,1.775915,0.796172,-0.627143
103,0.823142,0.749211,-0.508897
104,0.320472,0.274582,-0.007421
105,-0.937639,-0.516776,-0.650962
106,-0.580852,-0.956518,-1.223222
107,0.671119,-1.143016,-0.455001
108,0.463749,-1.175351,-0.358862
109,-0.009285,-1.148533,-0.514113
110,-0.072303,-1.212173,-0.463375
111,0.030431,-1.247412,-0.04897
112,0.279916,-0.752651,-0.151724
113,0.334195,-0.366137,-0.026061
114,0.208416,-0.064082,0.266113
115,0.39647,2.250079,0.010427
116,0.32238,3.745965,-0.362045
117,0.298226,2.969164,-0.246127
118,1.066473,1.337482,0.256109
119,1.187119,1.010387,-0.16539
120,1.031018,0.789495,-0.058403
121,0.027613,0.022148,0.453312
122,-0.615687,-0.547027,0.672059
123,-0.932757,-1.119714,0.84033
124,-0.877364,-1.48949,1.085075
125,-0.958736,-1.608276,1.678221
126,-1.096246,-1.458159,1.807407
127,-0.824169,-0.678556,0.30453
128,0.297474,0.173612,-0.896505
129,1.630709,0.99871,-1.426701
130,0.983462,-0.559315,0.182319
131,-0.41697,-1.201047,2.07305
132,-1.057777,-0.066976,1.273333
133,-0.252015,1.583509,1.179272
134,-1.042373,0.213047,-0.012056
135,-1.039616,-0.215872,0.022512
136,-0.295591,0.896844,0.782777
137,0.30675,1.487606,0.616324
138,1.382884,1.629533,0.551852
139,2.707865,1.342581,-0.247058
140,1.795869,0.516214,-0.832949
141,0.63279,0.555899,-0.876068
142,0.376896,0.149395,-0.080696
143,-0.574066,-0.391015,0.538304
144,-1.114797,-1.072334,-1.541453
145,-0.115504,-1.030183,-0.956399
146,0.415671,-1.180321,-0.352025
147,0.218816,-1.224671,-0.462455
148,-0.085354,-0.982544,-0.373732
149,-0.108113,-0.790374,-0.452869
150,-0.085739,-0.73563,-0.348468
151,0.353616,-0.123513,0.318775
152,0.299964,0.131424,0.39623
153,0.520876,1.889295,0.158452
154,0.468669,2.995559,-0.62001
155,0.427532,2.512641,-0.412181
156,0.952679,1.263562,0.289873
157,1.113942,0.731086,-0.117764
158,0.956331,0.554407,0.111027
159,0.308752,0.133183,0.395722
160,-0.682727,-0.739884,0.796559
161,-0.72304,-0.962901,0.981342
162,-0.920653,-1.460184,1.439641
163,-1.095888,-1.348189,2.044065
164,-1.260245,-0.895237,1.058098
165,-0.477304,-0.147655,-0.354295
166,1.537239,0.382294,-1.432565
167,1.534884,0.00361,-0.246125
168,0.100544,-0.865955,2.48411
169,-0.440053,0.919272,0.121322
170,-0.341241,0.344431,0.708636
171,-0.83283,-0.789083,0.878178
172,-0.399209,0.391855,1.034103
173,0.113029,1.107164,0.238081
174,0.37849,1.219964,0.535713
175,1.362987,1.768962,0.326575
176,2.312057,1.334055,-0.350547
177,1.22588,0.379534,-0.678641
178,0.666642,0.62296,-0.175343
179,-0.651054,-0.208272,-0.018206
180,-0.913592,-0.624792,-0.610139
181,-0.868538,-1.046401,-0.750099
182,0.534099,-1.035148,-0.710837
183,0.10273,-1.040271,-0.72835
184,-0.086756,-1.126836,-0.543339
185,-0.120602,-0.899683,-0.226492
186,0.033851,-0.912698,-0.282118
187,0.412047,-0.413954,0.071567
188,0.303852,-0.001594,0.31046
189,0.258914,0.91733,0.11944
190,0.309224,2.222789,-0.261607
191,0.427734,2.935931,0.013866
192,0.877644,1.69498,0.213738
193,1.356196,1.236204,0.14653
194,1.145771,0.499728,-0.131098
195,0.717389,0.211455,0.366582
196,0.222188,-0.072548,0.57059
197,-0.931292,-1.072902,0.976531
198,-1.179274,-1.389515,1.263103
199,-1.081143,-1.59433,1.497991
200,-1.334152,-1.315857,1.769992
201,-1.254666,-0.711942,0.515658
202,0.618424,0.33225,-1.155392
203,1.422981,0.926157,-2.195372
204,1.528726,0.081683,0.253465
205,-0.360598,0.278051,1.135143
206,-0.305223,1.360889,0.456139
207,-0.883406,-0.748181,0.742265
208,-0.556426,0.272155,1.26146
209,-0.388357,0.865909,0.93285
210,-0.009889,1.374486,0.583007
211,0.850925,1.873971,0.488591
212,2.352122,1.364291,0.070103
213,2.28924,0.989571,-0.577872
214,0.896977,0.776502,-0.346091
215,0.695523,0.75168,0.081571
216,-0.290369,-0.105487,-0.158816
217,-0.772866,-1.126004,-0.51011
218,0.381993,-1.307887,-0.633574
219,0.391891,-1.074695,-0.801601
220,0.118198,-1.014836,-0.639772
221,-0.163112,-1.032341,-0.516431
222,-0.218651,-0.965518,-0.250324
223,0.090882,-1.010036,-0.154252
224,0.551029,-0.586239,-0.033391
225,0.304414,-0.128325,0.166384
226,0.238901,0.718075,0.021094
227,0.590741,3.359236,-0.068781
228,0.377895,3.241063,-0.12417
229,0.483244,2.008558,0.138
230,1.4044,1.20348,0.365869
231,1.511159,0.994793,0.010601
232,0.71588,0.190109,0.159017
233,-0.125555,-0.233502,0.538973
234,-0.77014,-1.012732,0.908865
235,-1.107168,-1.499633,1.331338
236,-1.131382,-1.756598,1.75738
237,-1.346688,-1.47935,1.949677
238,-1.414271,-1.189515,1.380774
239,-0.093123,-0.171643,-0.334132
240,1.447906,0.717886,-2.0299
241,1.904064,1.048652,-1.23013
242,-0.495118,-1.126049,2.288155
243,-0.815665,0.027545,1.586486
244,-0.689588,1.58823,-0.835628
245,-1.048354,-0.568056,0.612083
246,-0.604224,0.149382,1.175342
247,0.020847,1.098036,0.625911
248,0.261039,1.292762,0.55975
249,0.923967,1.773302,0.515423
250,2.225543,1.130735,-0.626031
251,1.700386,0.639232,-0.848122
252,1.091667,0.536659,-0.249092
253,-0.208176,-0.259002,0.150495
254,-0.983976,-0.130247,-0.672243
255,-1.074236,-0.964769,-0.831712
256,0.545249,-1.172102,-0.672833
257,0.408087,-1.179229,-0.730576
258,0.074197,-1.14241,-0.444302
259,0.026367,-0.939106,-0.255295
260,0.00575,-0.989123,-0.054735
261,0.095287,-0.992235,-0.134415
262,0.390129,-0.540651,0.192176
263,0.353995,-0.02543,0.281775
264,0.386474,1.26132,0.195678
265,0.321479,3.567002,-0.427964
266,0.214813,1.766002,-0.092039
267,0.96955,1.134291,0.387252
268,1.45628,0.748746,-0.216648
269,0.943165,0.204033,0.122706
270,-0.006722,-0.125002,0.525144
271,-0.822649,-0.755544,0.836957
272,-1.184801,-1.414448,1.053971
273,-1.075922,-1.692902,1.377083
274,-1.126182,-1.330487,1.771362
275,-1.191178,-0.788801,0.978528
276,-0.401959,0.001022,-0.413553
277,1.354443,0.955211,-2.283656
278,1.717183,-0.049437,0.18177
279,0.278733,-0.900294,2.246622
280,-0.468013,0.71669,1.185817
281,-1.170261,-0.025565,-0.209208
282,-0.97384,-1.049958,1.854941
283,-0.411447,0.806622,1.034153
284,-0.107963,1.23481,0.818795
285,0.511761,1.541356,0.502844
286,1.440893,1.776365,0.342155
287,2.038508,0.827793,-0.595684
288,1.472414,0.461206,-0.847834
289,1.003634,0.49064,-0.959093
290,0.35894,0.079253,0.743304
291,-0.996154,-0.496054,-0.884733
292,-0.279892,-1.218749,-0.688226
293,0.519411,-1.202043,-0.702053
294,0.405895,-1.169311,-0.663381
295,0.03994,-1.128925,-0.368016
296,0.007448,-1.186817,-0.382952
297,-0.011157,-0.993541,-0.347209
298,0.178647,-0.662688,-0.650124
299,0.031199,-0.620337,0.343646
300,0.50556,-0.09756,0.603168
301,0.71363,1.405769,0.504596
302,1.028121,5.285627,-0.789241
303,0.356345,4.174184,-0.703024
304,0.211435,0.956524,0.464044
305,0.710656,0.926195,0.366946
306,1.023336,0.655662,0.024988
307,0.612655,0.022935,0.367078
308,-0.283511,-0.656068,0.577389
309,-0.979827,-1.130628,0.880947
310,-0.985177,-1.401284,1.038622
311,-0.954205,-1.400033,1.367697
312,-0.948844,-0.938488,1.775045
313,-0.89898,-0.566141,0.970082
314,-0.227651,0.315267,-0.431583
315,1.538804,0.685414,-1.78622
316,1.517037,-0.668292,0.10587
317,-0.471879,-0.385287,2.479016
318,-0.552883,1.345136,-0.170407
319,-1.192978,-0.688571,-0.275734
320,-0.621634,-0.094161,1.238312
321,-0.433079,0.437791,0.872594
322,0.299081,1.32096,0.336819
323,0.821839,1.555545,0.389579
324,2.131197,1.664618,0.374511
325,2.577002,1.516161,0.058822
326,0.831917,0.549072,-0.569344
327,0.568567,0.556565,0.329059
328,0.216266,0.213151,0.688338
329,-0.632332,-0.882918,-0.797944
330,0.237856,-1.179112,-0.775913
331,0.724102,-1.167481,-0.666397
332,0.118771,-1.100294,-0.401466
333,0.096256,-1.135285,-0.508712
334,0.060056,-1.165038,-0.527753
335,0.002138,-1.050767,-0.103561
336,0.503076,-0.48934,0.053897
337,0.518053,-0.135942,0.125808
338,0.380567,1.204552,-0.128013
339,0.286808,3.834893,0.035905
340,-0.024189,2.317943,-0.01977
341,0.290923,1.752805,0.378547
342,1.471625,1.094666,0.275871
343,1.142824,0.323859,-0.086927
344,0.571969,0.13801,0.240298
345,-0.255846,-0.555058,0.623638
346,-1.021863,-1.294279,1.004186
347,-0.978503,-1.546202,1.449597
348,-0.932122,-1.639117,1.83121
349,-1.125311,-0.953049,1.571262
350,-0.765004,-0.179449,-0.060945
351,-0.175685,0.227795,-0.758447
352,1.433556,0.640323,-0.535113
353,0.527164,-0.974061,1.158143
354,-0.741366,-1.257559,2.123784
355,-0.597166,1.190311,-0.158993
356,-0.357979,1.326109,1.015421
357,-0.858592,-0.931697,-0.316728
358,-0.382917,0.352809,1.186094
359,0.117506,1.124017,0.978106
360,1.040911,1.648726,0.984607
361,2.370811,1.455315,0.604589
362,1.986839,0.80541,-0.345349
363,0.836324,0.44586,-1.339376
364,0.584614,0.661485,-0.41082
365,-0.054247,-0.104983,0.991227
366,-1.622922,-0.338842,-1.222724
367,-0.939042,-0.664254,-0.801504
368,0.799156,-1.146506,-0.315153
369,0.394879,-1.340083,-0.55429
370,0.201991,-1.306083,-0.368243
371,-0.023498,-1.330175,-0.318561
372,0.020201,-1.245447,-0.218488
373,0.255582,-1.002151,0.015215
374,0.437961,0.309417,0.309361
375,0.479433,0.821464,0.354796
376,0.630088,1.861125,-0.005816
377,0.282091,2.736834,-0.287661
378,0.675683,1.874087,0.129006
379,1.063802,1.243629,0.307687
380,0.942592,0.146205,0.210316
381,0.533874,0.094298,0.45941
382,0.073151,-0.128408,0.611051
383,-1.309123,-1.253111,1.121358
384,-1.41208,-1.380305,1.28179
385,-1.364215,-1.701635,2.115091
386,-1.413849,-1.041788,1.474236
387,-0.903244,-0.336509,-0.140855
388,0.637584,0.205168,-1.334459
389,1.75869,1.005896,-0.9377
390,0.901371,-0.655819,0.760294
391,-0.632946,-1.155531,2.01624
392,-0.378784,1.668955,-1.397668
393,-0.666286,-0.01557,0.966355
394,-0.644136,0.101528,1.004305
395,-0.408382,0.69262,0.651909
396,-0.060542,1.275684,0.52034
397,0.823194,1.518402,0.70714
398,1.455641,1.602994,0.702061
399,2.188308,1.034831,-0.514749
400,1.001032,0.428119,-0.717791
401,0.671221,-0.110869,0.443885
402,-0.766577,-0.444066,-0.639801
403,-0.679452,-0.95752,-0.758367
404,0.557991,-0.999852,-0.672172
405,0.1733,-1.118099,-0.875649
406,0.086716,-0.83449,-0.124615
407,0.040891,-1.116783,-0.461328
408,-0.062521,-1.257996,-0.325364
409,0.143963,-1.10937,-0.228139
410,0.361509,-0.53157,0.268786
411,0.36578,-0.02642,0.415822
412,0.804427,1.705363,0.38535
413,0.897466,4.063652,-0.162185
414,0.095481,2.936108,-0.348275
415,0.56672,1.479773,0.478362
416,1.905781,0.459137,-0.17019
417,1.523919,0.421337,-0.056084
418,0.310825,-0.111878,0.334697
419,-1.040494,-1.25219,1.010342
420,-1.350884,-1.381259,1.185062
421,-1.516104,-1.345533,1.25896
422,-1.62314,-1.28171,2.051329
423,-1.550249,-0.604976,1.192366
424,-1.325028,-0.309063,0.554483
425,1.699742,0.699249,-1.724642
426,2.21062,0.859506,-0.709412
427,1.925288,-0.096357,0.204387
428,-0.029616,1.559086,0.142119
429,-0.544174,1.436137,0.98576
430,-1.135354,0.03313,0.013758
431,-0.587587,0.483302,1.149527
432,-0.422543,1.031576,0.76292
433,-0.347659,1.374742,0.658246
434,0.786863,1.437994,0.542677
435,1.841185,1.517643,0.174388
436,2.224658,1.201671,-0.256559
437,1.304078,0.422912,-0.996782
438,0.91847,0.262232,0.222951
439,-1.026804,-0.315756,-0.96248
440,-1.395807,-0.734517,-0.786133
441,0.274458,-1.182214,-0.706155
442,0.285456,-1.183276,-0.64122
443,0.0895,-1.101321,-0.593802
444,-0.156174,-1.080919,-0.363385
445,-0.057868,-1.158501,-0.251547
446,0.09831,-0.928715,-0.604571
447,0.108832,-0.722397,-0.286408
448,0.380604,-0.176681,0.610756
449,0.440259,0.257945,0.645074
450,1.008743,2.74366,0.004262
451,0.2026,3.296876,-0.433312
452,0.413188,1.325461,0.466346
453,1.360303,0.739915,0.24781
454,1.348591,0.463803,0.184278
455,0.42229,0.244188,0.420712
456,-0.543861,-0.295011,0.617184
457,-1.236591,-0.803322,0.898846
458,-1.250784,-1.337732,1.114614
459,-1.23272,-1.552042,1.475273
460,-1.305966,-1.100753,1.829502
461,-1.263295,-0.492738,0.514066
462,0.03379,0.155848,-0.729444
463,1.819713,0.862862,-1.478659
464,1.347461,-0.581133,0.148261
465,0.363407,-0.819676,1.631539
466,-0.508949,1.433552,-0.626542
467,-1.038471,-0.681754,1.480822
468,-0.686469,-0.171668,1.704455
469,-0.548843,0.485147,1.15136
470,0.480061,1.581765,0.439828
471,0.83015,1.630531,0.526691
472,1.14976,1.536649,0.548578
473,1.44927,0.36261,-0.592695
474,1.147996,0.310557,-0.787568
475,0.985396,0.294026,-0.737048
476,-0.751338,-0.356972,-0.495498
477,-1.179889,-0.424573,-1.072729
478,-0.7452,-0.819521,-0.773364
479,0.369245,-1.022652,-0.673362
480,0.032676,-1.106679,-0.422464
481,-0.063367,-1.157693,-0.253326
482,-0.083553,-1.265369,-0.324363
483,0.023092,-1.05342,-0.50299
484,0.431912,-0.400509,0.19079
485,0.47039,-0.061954,0.486
486,0.66778,0.740189,0.687943
487,0.578319,4.049414,-0.759505
488,0.226621,3.382274,-0.138423
489,0.388933,1.576167,0.28878
490,1.618455,0.796861,-0.053961
491,1.446373,0.828572,0.138391
492,0.478733,0.315847,0.353349
493,-0.590815,-0.362698,0.603095
494,-1.000358,-0.996571,0.928734
495,-1.088975,-1.209023,1.030801
496,-1.301396,-1.386058,1.45911
497,-1.414029,-0.769813,1.367371
498,-1.374425,-0.586213,0.853107
499,0.247662,0.342916,-0.795323
500,1.856706,0.796526,-0.522656
501,0.856069,-0.772806,0.519025
502,-0.72172,-1.056695,1.607175
503,-0.37328,1.593783,-0.107843
504,-0.684724,0.544002,0.710459
505,-0.898261,-0.519445,0.912596
506,-0.540513,0.23369,0.867608
507,0.09792,1.366529,0.457097
508,0.659578,1.62971,0.66117
509,1.337605,1.154969,0.554372
510,1.800988,0.861074,0.079825
511,1.532324,0.391366,-0.709363
512,0.975854,0.417991,-0.574858
513,0.233983,-0.087071,0.570214
514,-1.323879,-0.195927,-0.731141
515,-0.253474,-0.981103,-0.683143
516,0.609126,-1.204462,-0.605053
517,0.33376,-1.179705,-0.345638
518,0.068554,-1.284675,-0.410253
519,-0.065349,-1.372299,-0.325991
520,-0.063167,-1.304897,-0.783216
521,0.538104,-0.544,0.312652
522,0.655076,-0.220712,0.526413
523,0.62779,0.085374,0.579558
524,0.955613,3.578487,-0.18042
525,0.568806,3.915045,-0.122845
526,0.189016,3.16517,-0.190239
527,1.211416,0.935996,0.393313
528,1.483858,0.621525,0.025768
529,0.342263,0.166794,0.449905
530,-0.530918,-0.302622,0.552364
531,-1.128448,-0.799949,0.842444
532,-1.382937,-1.143753,1.229354
533,-1.501505,-1.366429,1.931911
534,-1.625124,-1.289862,1.903151
535,-1.461861,-0.548129,0.178764
536,-0.110023,0.062936,-0.889089
537,2.017832,0.679546,-1.258218
538,1.354758,-0.409348,0.637552
539,-0.39784,-1.067008,1.951583
540,-0.629433,0.118037,1.391774
541,-0.731907,0.070089,1.615007
542,-0.840568,-0.566566,1.240305
543,-0.427858,0.472768,0.653787
544,0.120497,1.220406,0.350915
545,0.644979,1.52506,0.449907
546,0.982838,1.343095,0.625575
547,2.010713,1.035392,0.242242
548,1.808121,0.4746,-0.450883
549,1.040772,0.51317,-0.911791
550,0.479046,-0.119414,0.417176
551,-1.255709,-0.211095,-0.659135
552,-0.612329,-0.911971,-0.55036
553,0.326679,-1.10074,-0.515538
554,0.307761,-1.225001,-0.372634
555,0.043441,-1.246743,-0.250165
556,-0.103322,-1.337332,-0.425527
557,-0.098985,-1.231203,-0.337158
558,-0.020425,-1.112106,-0.512592
559,0.111638,-0.434809,0.318787
560,0.476168,-0.025464,0.724897
561,0.913238,1.11201,0.578758
562,1.545153,4.262909,-0.951736
563,0.396916,2.635704,-0.217551
564,0.848427,0.902686,0.345323
565,1.212377,0.696386,0.267196
566,1.018879,0.7001,0.238705
567,0.154196,0.07431,0.4675
568,-0.762723,-0.37183,0.664719
569,-1.531346,-1.042559,0.989982
570,-1.565076,-1.321605,1.312396
571,-1.71376,-1.279382,1.578895
572,-1.439394,-0.408141,0.388976
573,-0.988797,-0.24366,-0.049334
574,1.774164,0.641284,-1.503653
575,1.6012,-0.171646,0.442368
576,0.146217,-1.482033,1.575871
577,-0.397254,0.71919,1.441051
578,-0.104666,1.357981,0.90116
579,-1.480477,-0.444765,-0.060547
580,-0.87981,-0.131815,1.099697
581,-0.187427,1.273446,0.522532
582,0.515465,2.123245,0.382517
583,0.75232,1.206203,0.597624
584,1.691984,0.788101,0.457827
585,1.811681,0.533508,-0.468425
586,1.235294,0.526135,-1.241217
587,0.903976,-0.07544,0.53026
588,-0.589998,-0.322871,-0.247285
589,-0.860549,-0.904724,-0.466267
590,0.397186,-1.26604,-0.327364
591,0.317811,-1.467395,-0.898808
592,-0.102187,-1.189641,-0.139324
593,-0.270354,-1.235079,-0.538978
594,-0.124604,-1.250192,-0.42464
595,0.121314,-0.802954,-0.343754
596,0.46068,-0.378338,0.379263
597,0.561855,0.106298,0.543611
598,0.67205,0.648846,0.588082
599,0.540388,3.697154,-0.006555
600,0.522125,3.749129,0.077498
601,0.777273,0.955933,0.443105
602,1.337795,0.378556,0.135459
603,1.070061,0.386795,0.188741
604,0.151893,-0.033876,0.447565
605,-0.918489,-0.420373,0.63516
606,-1.418807,-0.917708,1.118167
607,-1.709403,-1.209847,1.603431
608,-1.85834,-0.864822,1.808651
609,-1.811346,-0.432544,0.836701
610,-0.89464,-0.171174,-0.420945
611,2.341084,0.408162,-0.986926
612,2.094846,0.121759,0.23576
613,1.284371,-0.617944,0.6931
614,-0.777937,0.287644,0.909373
615,-0.015934,2.251377,-2.231431
616,-0.471113,1.144349,1.204078
617,-0.799362,0.01856,1.164176
618,-0.397692,0.532458,0.802556
619,0.91686,2.042581,0.57588
620,1.215052,1.292757,0.67793
621,2.239135,0.241439,0.37939
622,1.746332,0.085585,-0.837446
623,1.042449,0.295255,-0.909026
624,0.362885,-0.239307,0.626846
625,-1.160761,-0.02102,-0.416696
626,-0.503018,-0.93828,-0.385827
627,0.432828,-1.477561,-0.387594
628,0.070288,-1.508309,-0.561337
629,-0.263183,-1.220192,-0.094959
630,-0.326756,-1.318753,-0.536758
631,-0.132009,-1.074193,-0.339115
632,0.077657,-0.605603,-0.271703
633,0.307793,-0.284385,0.582581
634,0.616677,0.295903,0.630407
635,1.384019,2.243749,0.014607
636,1.567508,4.17288,-0.517714
637,0.398588,1.564207,-0.009728
638,1.307141,0.541963,0.264656
639,1.347278,0.407605,0.003431
640,0.919256,0.226845,0.238118
641,-0.64683,-0.130999,0.564471
642,-1.138294,-0.325997,0.801952
643,-1.406287,-0.542381,1.078225
644,-2.04925,-0.742777,1.41681
645,-1.982514,-0.558894,1.52252
646,-1.683727,-0.342535,0.667961
647,-0.541255,0.046107,-0.149563
648,0.148583,0.226545,-0.793598
649,2.019899,-0.419787,0.566054
650,0.066532,-1.483563,1.808665
651,-0.922405,-0.436133,1.113722
652,0.545395,2.552194,-1.809361
653,-0.694877,0.825864,0.778203
654,-1.219082,-0.261989,0.269719
655,-0.352595,0.685754,0.750159
656,0.378001,1.635897,0.518696
657,0.857851,1.431967,0.580884
658,1.907636,0.845333,0.687466
659,2.253056,0.234128,-0.108855
660,1.298249,0.357161,-1.39421
661,1.036265,-0.024043,0.2609
662,-0.411477,-0.254747,-0.007579
663,-1.41026,-0.148535,-0.787585
664,0.24583,-1.519483,-0.34368
665,0.042826,-1.416883,-0.610842
666,-0.244498,-1.272569,-0.402739
667,-0.31557,-1.227239,-0.533821
668,-0.220137,-1.161033,-0.496132
669,0.030223,-0.774422,0.005266
670,0.57114,-0.37461,0.568878
671,0.606101,0.25633,0.217017
672,1.346895,2.106747,-0.348736
673,1.313762,4.002942,-0.248313
674,0.085845,2.008946,0.111701
675,0.932082,1.158817,0.159627
676,1.738042,0.254553,0.085285
677,1.210542,0.164392,0.181158
678,0.208535,-0.097762,0.322474
679,-0.904454,-0.331466,0.682786
680,-1.37983,-0.578222,0.902446
681,-1.595451,-0.959091,1.383118
682,-1.841381,-0.827094,1.66951
683,-1.917372,-0.459559,1.342046
684,-1.130708,-0.127514,0.031022
685,0.781,0.516857,-1.665306
686,2.104435,0.092825,-0.325493
687,0.519917,-1.315838,1.248797
688,-0.50638,-1.347799,2.123827
689,0.600309,2.461133,-1.690382
690,-0.673204,0.277627,0.644272
691,-1.377445,-0.162904,-0.190565
692,-0.027055,1.322733,0.512758
693,0.349077,1.531005,0.182682
694,0.744279,1.348605,0.408035
695,2.321823,0.610196,0.661029
696,2.533192,0.325186,0.304214
697,2.265808,0.081965,-0.28819
698,0.620836,-0.06997,0.408192
699,-0.251783,-0.209716,0.22353
700,-1.352379,-0.076057,-0.748088
701,-0.15419,-1.200249,-0.517711
702,0.271871,-1.481365,-0.577002
703,0.033931,-1.376604,-0.517662
704,-0.303871,-1.354335,-0.293168
705,-0.295576,-1.300716,-0.476433
706,-0.045404,-0.889385,-0.44808
707,0.56391,-0.318827,0.653599
708,0.599672,0.082761,0.632211
709,1.499788,2.726581,-0.516769
710,1.156626,4.153913,-0.290677
711,0.297631,2.913619,-0.294367
712,1.384735,0.293987,0.360362
713,1.522517,0.157944,0.000657
714,0.799169,0.091558,0.145318
715,-0.351208,0.06507,0.495505
716,-1.233114,-0.308336,0.904592
717,-1.527203,-0.789277,1.340366
718,-2.016219,-0.8204,1.566409
719,-2.059844,-0.619183,1.750763
720,-1.632836,-0.196688,0.964047
721,-0.410282,-0.045207,-0.123592
722,0.26628,0.151761,-0.823421
723,2.547916,0.159925,-0.869294
724,0.067929,-0.850095,1.710796
725,0.31359,1.361467,0.480142
726,0.181811,1.785148,-0.690091
727,-1.422684,-0.683567,1.566537
728,-0.558987,0.420085,1.101501
729,-0.239187,1.172119,0.760824
730,0.725519,1.544113,0.192692
731,1.06385,1.017879,0.604803
732,2.342219,0.540194,0.345531
733,2.015846,0.132919,-0.904588
734,1.228849,0.245996,-0.364812
735,0.378368,-0.017432,0.604464
736,-1.425869,0.217305,-0.673702
737,-0.701948,-0.795991,-0.537536
738,0.219749,-1.359524,-0.504009
739,0.053296,-1.264855,-0.673812
740,-0.104367,-1.138826,-0.467961
741,-0.326041,-1.253808,-0.229385
742,-0.35603,-1.360608,-0.267218
743,0.125712,-1.046075,0.342325
744,0.561711,-0.734282,0.587002
745,0.611774,0.46405,0.039516
746,1.325754,2.243478,0.012639
747,1.497438,3.416758,0.391496
748,0.183466,2.342473,-0.160972
749,0.97105,1.07655,0.250798
750,1.87678,0.098308,0.256258
751,1.298715,-0.11321,0.032397
752,0.14042,0.091799,0.411102
753,-0.662043,-0.121065,0.709749
754,-1.337178,-0.535189,0.985728
755,-1.903531,-1.124431,1.574913
756,-1.983737,-1.162649,1.646674
757,-2.026183,-0.988124,1.71372
758,-0.687595,-0.174764,-0.22597
759,0.063728,0.067078,-0.87093
760,1.437656,0.290162,-2.141565
761,0.301578,-1.543988,1.168429
762,-0.753774,-1.008294,2.300571
763,0.686309,2.727054,0.302996
764,-1.41177,-0.033484,0.857605
765,-1.574562,-0.501383,0.657696
766,-0.306973,1.118583,0.8757
767,0.155201,1.455704,0.494427
768,0.820817,1.457342,0.412128
769,1.576457,0.922897,0.76486
770,2.637876,0.394351,0.018964
771,1.536231,0.152022,-1.36496
772,0.935735,-0.084973,0.193574
773,-0.429121,-0.041827,-0.079372
774,-1.482935,-0.136724,-0.487769
775,-0.293504,-1.023715,-0.357876
776,0.236692,-1.542796,-0.73194
777,0.057011,-1.265302,-0.263028
778,-0.154138,-1.26663,-0.325746
779,-0.279864,-1.361867,-0.326413
780,-0.174418,-1.285458,-0.22333
781,0.540872,-0.840712,0.339201
782,0.61497,-0.093836,0.207554
783,0.595964,0.675846,-0.062177
784,1.533026,2.71325,0.210789
785,0.91912,3.619687,0.208567
786,0.344337,1.927869,0.051541
787,0.570752,1.320073,0.376585
788,1.27991,0.205709,0.170455
789,1.275324,0.254375,0.20989
790,-0.097128,0.004208,0.231906
791,-0.909724,-0.244216,0.650105
792,-1.152827,-0.430338,0.893051
793,-1.911436,-0.988538,1.598456
794,-1.911804,-0.79158,1.859968
795,-1.766726,-0.384598,0.673931
796,-0.663561,-0.028475,-0.404729
797,1.090194,0.126004,-1.247809
798,1.966511,-0.239352,0.340622
799,0.007964,-0.851646,1.744141
800,-0.027189,1.372465,0.14433
801,-0.642779,0.254312,1.90008
802,-1.445403,-0.477814,0.988164
803,-0.453767,0.560413,0.956545
804,0.311583,1.768342,0.214329
805,0.456272,1.44067,0.578561
806,1.423958,0.863274,0.721142
807,2.143274,0.69143,0.489355
808,2.367727,0.51899,-0.059649
809,0.901288,0.119743,0.292664
810,0.605864,-0.022573,0.219144
811,-1.002027,0.020175,-0.306556
812,-0.73153,-1.001715,-0.626325
813,-0.102507,-1.280031,-0.417205
814,-0.012071,-1.245655,-0.516433
815,-0.235516,-1.125143,-0.370411
816,-0.184013,-1.222179,-0.489825
817,-0.214684,-1.287895,-0.383277
818,-0.087065,-0.924045,-0.155746
819,0.259477,-0.41162,0.553434
820,0.593329,0.040284,0.382384
821,1.361515,1.535885,0.709343
822,1.848418,3.528011,-0.743011
823,0.511334,2.496812,-0.201288
824,0.596766,1.211339,0.376622
825,1.592672,0.494982,0.159397
826,1.360456,0.300717,0.185839
827,0.382257,0.158061,0.204277
828,-0.676486,-0.068897,0.489134
829,-1.314215,-0.474393,0.880731
830,-1.692593,-0.788017,1.094539
831,-2.009629,-0.893365,1.395328
832,-1.846746,-0.532808,1.318938
833,-1.415601,-0.162378,0.487088
834,-0.715454,-0.00582,0.009605
835,2.445381,0.140775,-0.843391
836,1.056143,-0.954219,0.427817
837,-1.004241,-0.705024,2.285819
838,-0.44318,1.521859,-0.78243
839,-0.360678,0.675269,2.253495
840,-1.176887,0.040166,0.380128
841,-0.483785,0.294988,1.196883
842,0.268047,1.184963,0.344026
843,0.759466,1.410546,0.707742
844,1.416865,1.119041,0.765579
845,2.003334,0.158015,-0.339401
846,1.417903,0.085685,-1.315256
847,1.099486,0.161622,-1.309979
848,-0.134141,-0.108814,0.064361
849,-0.741798,-0.252137,-0.431515
850,-1.223665,-0.251615,-0.461798
851,0.106028,-1.54794,-0.499897
852,0.038297,-1.494085,-0.674058
853,-0.285833,-1.30222,-0.280168
854,-0.388942,-1.189194,-0.291627
855,0.018825,-1.045064,-0.265661
856,0.511599,-0.548349,0.297872
857,0.528779,-0.160405,0.182448
858,0.526474,0.208427,0.303337
859,1.917043,3.539041,0.2037
860,1.244848,3.51817,0.078437
861,0.384797,2.106015,0.017002
862,1.637152,0.297313,0.106798
863,1.675381,0.384048,0.1134
864,0.579366,0.121675,0.210416
865,-0.495229,-0.172201,0.566326
866,-0.918936,-0.268915,0.695616
867,-1.60313,-0.671982,1.159215
868,-1.916654,-1.021175,1.724882
869,-1.849221,-0.630469,1.863114
870,-1.773774,-0.350183,0.298048
871,-0.158465,0.107126,-1.093747
872,2.409659,0.075923,-1.264402
873,1.209828,-0.782623,0.89706
874,-0.703138,-0.178837,2.044791
875,0.147954,2.586622,-1.865818
876,-0.83713,-0.238576,1.704639
877,-1.057373,0.134267,0.572681
878,-0.238835,1.096303,0.629558
879,0.091164,1.544761,0.154783
880,0.510593,1.334558,0.569694
881,1.29026,1.081317,0.808997
882,2.928963,0.299025,0.296835
883,2.437979,0.001149,-0.439529
884,0.817486,-0.069964,0.519213
885,0.232257,-0.170748,0.437377
886,-0.327595,-0.243634,-0.03563
887,-0.152152,-1.339331,-0.494973
888,0.145536,-1.513896,-0.638555
889,0.148245,-1.455344,-0.717195
890,-0.263458,-1.237769,-0.470191
891,-0.327345,-1.086849,-0.365592
892,-0.349358,-1.12759,-0.307825
893,0.155472,-0.491652,0.326181
894,0.329406,-0.29031,0.565181
895,0.414475,-0.026334,0.429463
896,2.145879,3.638548,-0.181436
897,1.670635,3.985091,-0.212328
898,0.761529,2.817782,-0.072712
899,1.485096,0.397015,0.197223
900,1.453307,0.598815,0.14261
901,1.26751,0.473741,0.12956
902,-0.527961,-0.094406,0.575467
903,-0.958725,-0.326281,0.784769
904,-1.453498,-0.741858,1.131058
905,-1.826321,-0.958024,1.44352
906,-1.965481,-0.738868,1.713737
907,-1.44619,-0.263424,0.34645
908,0.135923,0.051296,-0.981675
909,1.309401,0.132435,-1.608551
910,1.00236,-0.911759,0.752369
911,-0.953912,-0.689904,2.016913
912,-0.951501,0.092329,1.601934
913,-0.43551,0.592638,2.245213
914,-1.058754,-0.132827,0.570942
915,-0.451623,0.731649,1.045872
916,0.130894,1.329368,0.458483
917,0.380641,1.412915,0.528124
918,1.394058,1.03245,0.820584
919,2.632408,0.258439,0.153476
920,2.16032,0.002141,-0.478822
921,1.027616,0.184802,-0.122611
922,0.116676,0.1203,0.159603
923,-0.765302,0.054681,-0.312443
924,-1.091446,-0.584938,-0.652349
925,0.19282,-1.428854,-0.461059
926,0.318755,-1.504246,-0.452943
927,-0.113802,-1.33358,-0.326245
928,-0.246406,-1.439119,-0.390012
929,-0.283259,-1.304218,-0.34037
930,0.132553,-0.794089,-0.074846
931,0.486641,-0.315451,0.430438
932,0.509851,0.088082,0.427392
933,1.503739,2.069129,0.330655
934,1.689157,4.179634,0.078376
935,0.318254,2.19413,-0.112861
936,0.516472,1.606573,0.485039
937,1.611605,0.483823,0.098884
938,0.418428,0.050093,0.287075
939,-0.037505,0.015902,0.444684
940,-0.49292,-0.12289,0.673171
941,-1.735053,-0.688286,1.318383
942,-1.821589,-0.874275,1.588876
943,-1.98969,-1.040294,1.668993
944,-1.48017,-0.186454,0.33698
945,-0.696319,-0.068515,-0.092573
946,0.117678,0.096084,-0.786692
947,1.090923,-0.878096,0.663085
948,0.186336,-1.274153,1.050369
949,-0.778801,-0.58416,2.107742
950,-0.579617,0.233677,1.941977
951,-0.927215,-0.197476,0.736668
952,-0.463358,0.551816,1.034328
953,0.261539,1.504711,0.283176
954,0.512904,1.278492,0.625533
955,1.154068,0.974111,0.744728
956,2.725392,0.595282,0.460638
957,2.502943,0.324123,-0.172394
958,1.03994,0.189298,-0.384322
959,0.428793,-0.099357,0.464713
960,-0.26178,-0.162067,0.071105
961,-0.761296,-0.69496,-0.875155
962,0.184627,-1.589834,-0.589438
963,0.325349,-1.603667,-0.464306
964,-0.087184,-1.490683,-0.649172
965,-0.28064,-1.271317,-0.414443
966,0.01285,-1.036612,-0.17076
967,0.682121,-0.34949,0.156604
968,0.323328,0.028593,0.237409
969,0.61814,1.160007,0.292776
970,1.440185,3.10271,0.623626
971,0.769074,2.958057,-0.164581
972,0.901588,1.80349,0.296048
973,1.677375,0.310626,0.007211
974,1.338496,0.229207,0.266719
975,0.77702,0.143316,0.372023
976,-0.458482,-0.135718,0.858594
977,-1.250586,-0.499311,0.960702
978,-1.517483,-0.67148,1.078372
979,-1.914248,-1.003307,1.813003
980,-2.099177,-0.587933,1.753446
981,-1.993809,-0.295364,1.170579
982,0.165064,0.064696,-0.96221
983,2.519579,0.258633,-1.445115
984,2.132016,0.197771,-0.200844
985,-0.553636,-0.715157,2.446473
986,-0.145768,1.590031,-1.540442
987,-0.573931,0.412266,1.777728
988,-1.042266,-0.093157,1.481703
989,-0.423849,0.417812,0.845834
990,0.351624,1.439429,0.304492
991,0.483932,1.285347,0.675069
992,2.412208,1.209056,0.372631
993,2.997659,0.549477,-0.432872
994,2.421675,0.126257,-0.841794
995,0.319686,-0.075773,0.541356
996,-0.318726,0.032066,0.074329
997,-0.967488,0.223508,-0.323857
998,0.131274,-1.59882,-0.503272
999,0.110639,-1.536362,-0.758995
1000,-0.168479,-1.185453,-0.288282
1001,-0.199981,-1.232007,-0.5068
1002,-0.256105,-1.030354,-0.552211
1003,0.035582,-0.722108,-0.410594
1004,0.399433,-0.38461,0.674916
1005,0.62806,0.136906,0.33792
1006,1.443694,1.933631,0.218915
1007,2.010523,4.025361,0.046594
1008,0.34084,2.199563,-0.044272
1009,0.876596,1.413625,0.440106
1010,1.433287,0.230245,0.285298
1011,1.114782,0.205768,0.300327
1012,0.071171,0.073052,0.393384
1013,-0.809192,-0.264067,0.71992
1014,-1.302657,-0.727937,1.239785
1015,-1.778057,-1.027488,1.630969
1016,-2.107498,-0.769601,1.765343
1017,-1.903238,-0.313795,0.89223
1018,-0.766017,-0.072861,-0.107341
1019,0.856266,0.348584,-1.330269
1020,1.94959,0.044695,-0.174976
1021,0.277148,-1.119676,1.084334
1022,-1.372181,-0.718347,1.990713
1023,-1.238339,-0.224607,1.301063
1024,-0.066018,1.41597,2.495332
1025,-0.823032,0.346529,0.634472
1026,-0.297664,0.489102,0.869674
1027,0.293462,1.271468,0.659364
1028,1.464084,1.260972,0.660428
1029,1.860962,0.87159,0.654832
1030,2.409073,0.354339,0.460685
1031,1.038611,0.379434,-0.485234
1032,1.097502,0.215974,0.580144
1033,0.571,-0.007182,0.767389
1034,-1.020044,-0.436609,-0.615001
1035,-0.305922,-1.097247,-0.725626
1036,0.216684,-1.5338,-0.648645
1037,-0.130849,-1.30294,-0.439556
1038,-0.183362,-1.422221,-0.69055
1039,-0.227382,-1.373228,-0.653313
1040,-0.008083,-0.723549,-0.283453
1041,-0.014407,-0.463603,0.23635
1042,0.138723,-0.279394,0.619685
1043,1.240882,1.547652,0.663971
1044,1.711621,2.930408,-0.955438
1045,0.93244,2.231801,0.018345
1046,1.31191,1.218337,0.334011
1047,1.611725,0.640842,0.214294
1048,0.929742,0.359809,0.191532
1049,0.28055,0.129247,0.533142
1050,-0.077208,-0.113303,0.741714
1051,-1.209187,-0.431849,1.136791
1052,-1.613158,-0.635156,1.418961
1053,-1.836951,-0.748177,1.479278
1054,-2.140257,-0.425567,1.71647
1055,-1.161311,0.079882,0.363559
1056,0.439644,0.113884,-0.993978
1057,2.188679,0.193503,-1.100553
1058,0.751899,-1.152115,1.532117
1059,-0.461261,0.227185,2.014482
1060,0.366303,1.449519,0.302127
1061,-1.298031,-0.137454,-0.39016
1062,-0.864516,-0.035505,1.487078
1063,-0.051376,1.073279,0.477585
1064,0.269852,1.390468,0.717737
1065,0.860343,1.345229,0.687946
1066,2.627976,1.040198,0.132099
1067,1.523929,-0.043266,-1.033805
1068,1.130297,0.189266,-0.66638
1069,0.818017,0.039234,0.418511
1070,-1.047508,-0.233275,-0.54895
1071,-0.903568,-0.938827,-0.565657
1072,-0.422393,-1.493634,-0.565898
1073,-0.051167,-1.349927,-0.534895
1074,-0.044847,-1.353743,-0.535237
1075,-0.266865,-1.065991,-0.43504
1076,-0.191425,-0.978642,-0.53461
1077,-0.05564,-0.655138,-0.626554
1078,-0.146217,-0.433415,-0.034468
1079,0.936109,0.499506,0.31683
1080,1.366515,1.41012,0.282479
1081,1.928267,2.950325,-0.139524
1082,0.593397,1.299274,0.238296
1083,0.955005,0.856658,0.50744
1084,1.277871,0.551634,0.453206
1085,0.431022,0.246432,0.578209
1086,-0.030194,0.066613,0.588411
1087,-0.9465,-0.092613,0.831105
1088,-1.69256,-0.629045,1.220059
1089,-2.015193,-0.939933,1.56621
1090,-2.042911,-0.465044,1.371318
1091,-1.15939,-0.045148,-0.003075
1092,-0.428347,0.030364,-0.623395
1093,2.37258,0.054256,-0.436911
1094,0.460401,-1.122243,1.377043
1095,-1.127463,-0.378761,1.854597
1096,0.909234,2.991033,-3.753077
1097,-0.669155,0.503877,1.653062
1098,-1.324871,0.10022,0.471417
1099,-0.415599,0.49656,1.019182
1100,0.282407,1.524452,0.736233
1101,1.243056,1.52634,0.755196
1102,2.373001,0.863771,0.725241
1103,2.100597,-0.091014,-0.605312
1104,0.978618,0.304464,-1.532819
1105,1.275329,-0.009949,0.918873
1106,-0.556777,-0.214861,0.063263
1107,-1.234475,-0.284061,-0.62525
1108,-0.187827,-1.453659,-0.499187
1109,0.100563,-1.560072,-0.610449
1110,-0.095182,-1.304227,-0.413107
1111,-0.282001,-1.32257,-0.484079
1112,-0.168317,-1.04358,-0.625433
1113,0.010885,-0.804437,-0.277856
1114,0.164806,-0.627617,0.373825
1115,0.891574,0.719724,0.368877
1116,0.848103,0.778142,0.410714
1117,1.977126,4.110299,-0.054823
1118,0.621766,1.519067,0.444729
1119,1.125196,0.922327,0.427873
1120,1.463305,0.377785,0.313087
1121,0.541984,0.073431,0.230874
1122,0.576269,0.073793,0.273347
1123,-1.033907,-0.234601,0.881665
1124,-1.519025,-0.674275,1.307198
1125,-1.970703,-0.904613,1.860279
1126,-2.256517,-0.648871,1.915222
1127,-1.977723,-0.14196,0.453635
1128,-0.268671,0.099441,-0.553162
1129,1.775368,0.11285,-1.646513
1130,1.402874,-0.389268,0.750254
1131,-0.516735,-0.917775,2.19219
1132,-0.038786,1.814251,-0.757721
1133,-0.442475,0.330837,2.395966
1134,-0.841628,-0.193768,0.723749
1135,0.041801,1.102766,0.645862
1136,0.287534,1.442901,0.606253
1137,0.83759,1.36146,0.777481
1138,2.469477,0.981052,0.453476
1139,1.935808,0.266104,-0.835712
1140,1.273116,0.230429,-0.323132
1141,0.777199,0.075543,0.487894
1142,-0.435388,0.006214,-0.573414
1143,-0.856929,-0.716318,-0.464624
1144,0.013665,-1.447383,-0.320513
1145,-0.117725,-1.613873,-1.150161
1146,-0.267345,-1.242476,-0.325029
1147,-0.309395,-1.194337,-0.253983
1148,-0.218604,-1.157485,-0.338837
1149,0.164015,-0.922849,-0.05659
1150,0.609685,-0.331832,0.203718
1151,0.630554,0.166654,0.303428
1152,1.574444,2.261144,0.002608
1153,1.784253,4.256722,0.291464
1154,0.529505,2.391938,-0.057173
1155,1.361502,0.705144,0.392089
1156,1.546797,0.187679,0.209422
1157,0.234342,0.017942,0.494806
1158,-0.178038,-0.0596,0.69988
1159,-0.602073,-0.25434,0.877893
1160,-1.964367,-0.7817,1.661816
1161,-2.078783,-0.969499,1.999452
1162,-2.207143,-1.027261,2.201153
1163,-0.836047,0.037453,-0.213947
1164,-0.027116,0.074895,-1.044207
1165,1.181833,0.23977,-1.791651
1166,0.022873,-1.173088,2.547582
1167,-0.986449,-0.937721,2.120713
1168,-1.254642,-0.211216,1.587623
1169,-0.812121,0.410382,1.25227
1170,-0.925613,-0.129349,1.087856
1171,-0.734398,-0.226287,0.873056
1172,0.559313,1.545854,0.866988
1173,0.944294,1.679017,0.737359
1174,1.820445,1.209647,0.704631
1175,2.504363,0.115569,-0.147745
1176,1.194031,0.202219,-1.708605
1177,1.06929,0.084446,0.141591
1178,-0.080199,0.091151,0.789751
1179,-1.852133,-0.089587,-0.883745
1180,0.00657,-1.594175,-0.629219
1181,0.094607,-1.445585,-0.497066
1182,-0.074138,-1.303192,-0.453946
1183,-0.196321,-1.302196,-0.44965
1184,-0.020087,-1.176513,-0.447233
1185,0.125908,-0.813113,0.122442
1186,0.537845,-0.29773,0.64978
1187,0.796938,0.300816,0.324153
1188,1.153184,1.35881,0.299736
1189,1.759315,4.342628,0.337624
1190,0.419775,2.190682,0.061217
1191,1.164486,1.041709,0.473199
1192,1.595262,0.123849,0.320068
1193,0.840288,-0.017611,0.355331
1194,-0.129851,0.091926,0.458569
1195,-0.999274,-0.348495,0.962539
1196,-1.557459,-0.850146,1.429305
1197,-2.035638,-1.059047,1.80164
1198,-2.295513,-0.800325,1.78081
1199,-1.7739,-0.275227,0.698576
1200,-0.191074,-0.010941,-0.371869
1201,2.354327,0.451919,-1.915527
1202,1.23577,-0.401738,0.795974
1203,-0.422694,-1.387213,1.692657
1204,-1.307609,-0.423513,1.646375
1205,1.32428,3.020653,-2.175514
1206,-0.77958,0.867674,1.266931
1207,-1.50328,-0.396839,-0.148293
1208,-0.354664,0.402275,1.093128
1209,0.304274,1.338169,0.773283
1210,1.469637,1.57118,0.899485
1211,2.840284,0.092696,0.239851
1212,2.203731,-0.047128,-0.783933
1213,1.52827,0.046712,-1.909044
1214,0.14163,-0.148824,0.579357
1215,-0.663923,0.051844,-0.181006
1216,-1.268698,-0.273917,-0.772795
1217,0.300678,-1.546701,-0.356261
1218,0.270464,-1.586461,-0.318538
1219,-0.120463,-1.55872,-0.584439
1220,-0.342024,-1.418388,-0.470825
1221,-0.333819,-1.08012,-0.281677
1222,0.089118,-0.65463,-0.127289
1223,0.501591,-0.303426,0.553138
1224,0.612028,0.133227,0.475799
1225,1.87198,2.383491,0.508496
1226,1.88699,4.22442,-0.105625
1227,0.62032,2.025556,0.215844
1228,1.303114,0.693105,0.429891
1229,1.440523,0.639173,0.288378
1230,0.70003,0.336842,0.377708
1231,-0.212131,-0.032311,0.589095
1232,-1.539242,-0.765313,1.213389
1233,-1.993406,-0.939882,1.749946
1234,-2.105947,-1.050163,1.836978
1235,-2.228515,-0.465119,1.579059
1236,-0.84342,-0.000564,-0.114299
1237,0.998109,0.25316,-1.538196
1238,2.091587,-0.159298,0.343349
1239,1.239132,-0.869057,1.234718
1240,-1.041488,-0.590097,1.468013
1241,0.803442,2.660548,-3.323962
1242,0.283771,1.458721,2.212009
1243,-1.445852,-0.019663,-0.640012
1244,-0.471651,0.671337,0.927478
1245,-0.116484,1.140762,0.655668
1246,1.099537,1.533989,0.721535
1247,1.138998,1.497997,0.736999
1248,2.80618,-0.042216,0.522484
1249,1.103023,0.369028,-1.824636
1250,0.647382,-0.023255,0.575073
1251,-0.561001,0.160627,-0.08727
1252,-1.201105,-0.560558,-0.591388
1253,0.104418,-1.463864,-0.47448
1254,0.110713,-1.60598,-0.73781
1255,-0.168117,-1.197532,-0.368855
1256,-0.269382,-1.166478,-0.496652
1257,-0.306564,-1.221305,-0.52463
1258,-0.200396,-1.018088,-0.287837
1259,0.633514,-0.196224,0.378357
1260,0.744328,0.328204,0.355952
1261,1.410016,2.531033,-0.174296
1262,1.613833,4.286599,0.277642
1263,0.591919,3.468445,0.283767
1264,1.259359,0.761907,0.363438
1265,1.619359,0.146455,0.348756
1266,0.864365,0.062105,0.275937
1267,-0.164501,0.052669,0.482422
1268,-1.06563,-0.565919,1.109181
1269,-1.379389,-0.80569,1.378391
1270,-2.253659,-0.913845,1.980689
1271,-1.972218,-0.244355,1.054743
1272,-1.554408,-0.040946,0.306618
1273,0.71541,0.116422,-1.38756
1274,2.371077,0.228196,-0.139447
1275,0.469714,-0.994486,1.216601
1276,-0.497762,-0.822975,1.960136
1277,-0.411993,0.361475,2.047911
1278,-0.728995,0.038483,0.892181
1279,-1.066141,0.084153,0.735892
1280,0.201328,1.678524,0.386217
1281,0.219171,1.622391,0.336345
1282,1.008144,1.276744,0.762069
1283,2.661898,0.285089,0.014962
1284,2.045825,0.016384,-0.623433
1285,1.415496,0.115041,-1.141601
1286,-0.227577,0.076461,0.080492
1287,-0.795493,0.248167,-0.443653
1288,-1.300218,-0.005738,-0.547647
1289,0.19121,-1.455884,-0.718987
1290,0.155801,-1.411325,-0.76272
1291,0.02833,-1.290222,-0.529892
1292,-0.291384,-1.132528,-0.37175
1293,-0.276659,-1.265892,-0.51439
1294,0.204678,-0.663691,0.214582
1295,0.428467,-0.165886,0.538677
1296,0.470719,-0.000964,0.399802
1297,1.874599,2.948299,-5.70E-05
1298,1.153263,3.433358,0.071216
1299,0.552143,2.211245,0.02464
1300,1.477121,0.688232,0.180599
1301,1.355014,0.495926,0.141697
1302,0.92443,0.390265,0.296539
1303,-0.408713,-0.021623,0.630923
1304,-1.20268,-0.440552,0.881803
1305,-1.372899,-0.655841,1.042656
1306,-2.032744,-0.958627,1.700661
1307,-2.058541,-0.549506,1.805234
1308,-1.936416,-0.367621,1.153499
1309,0.074219,0.060129,-0.99992
1310,2.45665,0.183342,-1.36916
1311,1.011806,-0.765899,1.057617
1312,-0.876703,-0.674195,2.080297
1313,-0.049271,1.869989,-2.814924
1314,-0.561474,0.342835,1.815933
1315,-1.1953,-0.017811,0.307794
1316,-0.483741,0.822829,1.124758
1317,0.086937,1.449498,0.699607
1318,0.736438,1.494123,0.649765
1319,2.604689,0.487895,0.641917
1320,2.682658,0.106393,-0.020864
1321,2.073982,-0.118819,-0.693601
1322,0.408386,0.053268,0.391048
1323,0.412721,0.04573,0.351144
1324,-1.107961,-0.129954,-0.643829
1325,0.052486,-1.452221,-0.536052
1326,0.081207,-1.472198,-0.568765
1327,-0.155091,-1.149541,-0.385625
1328,-0.333469,-1.231003,-0.271216
1329,-0.433581,-1.197851,-0.371777
1330,-0.128071,-0.871903,-0.58321
1331,0.425193,-0.38727,0.588946
1332,0.516664,-0.078755,0.535721
1333,1.224662,1.25012,0.657216
1334,2.032043,3.644175,-0.313583
1335,0.638883,3.082287,-0.071779
1336,0.649473,1.525915,0.535048
1337,1.598513,0.120416,0.384562
1338,1.337463,0.149401,0.160727
1339,0.314187,-0.053804,0.406302
1340,-0.590882,-0.162875,0.736857
1341,-1.296941,-0.492654,1.077864
1342,-1.939223,-0.821132,1.643898
1343,-2.143168,-0.681874,1.861602
1344,-1.8185,-0.210463,0.87361
1345,-0.402,0.141851,-0.451761
1346,2.290702,0.329421,-1.548285
1347,1.687976,-0.634099,0.832485
1348,-0.59726,-0.883353,2.411891
1349,-0.791766,0.563175,0.191768
1350,0.058172,2.063003,-1.938734
1351,-1.061624,0.075667,0.694666
1352,-0.610847,0.562508,1.234259
1353,0.021265,1.378975,0.470189
1354,0.44748,1.540572,0.546533
1355,1.11805,1.113132,0.719876
1356,2.713623,0.71827,0.784976
1357,2.233793,0.034143,-1.007326
1358,1.360404,0.09035,-0.960095
1359,0.697119,-0.161925,1.092964
1360,-1.078262,-0.048491,-0.366791
1361,-1.215663,-0.699434,-0.367238
1362,0.238614,-1.510575,-0.484812
1363,0.031269,-1.465969,-0.694965
1364,-0.264314,-1.210279,-0.424717
1365,-0.36394,-1.09107,-0.406597
1366,-0.326368,-0.999937,-0.441797
1367,0.568861,-0.535642,0.396019
1368,0.537964,-0.496642,0.488413
1369,0.616454,0.349338,0.292663
1370,2.084044,3.725537,0.514484
1371,1.578125,4.073441,0.275228
1372,0.514847,2.274222,-0.003477
1373,1.38744,0.787466,0.502741
1374,1.511514,0.167117,0.270688
1375,0.67236,0.072216,0.36708
1376,-0.19549,-0.032942,0.681684
1377,-1.030015,-0.41582,0.975559
1378,-1.607373,-0.784976,1.370958
1379,-2.027256,-1.022695,1.877764
1380,-2.147182,-0.660415,2.006589
1381,-1.661213,-0.098643,0.441925
1382,-0.155978,0.071016,-0.851282
1383,2.233741,0.414272,-1.742972
1384,1.204288,-0.431962,0.864824
1385,-0.635212,-1.117962,2.132307
1386,-0.83568,0.170914,1.514055
1387,-0.414093,0.528568,1.609467
1388,-1.159764,-0.218695,-0.316594
1389,-0.309313,0.80598,1.042573
1390,0.262176,1.590949,0.63524
1391,0.900814,1.535612,0.600351
1392,2.019863,0.860865,0.734821
1393,2.54539,0.033022,-0.159466
1394,1.263222,0.316587,-1.670278
1395,0.838976,0.016701,0.350546
1396,-0.351836,-0.152278,0.094432
1397,-1.368347,-0.292802,-0.466223
1398,0.024665,-1.420119,-0.359198
1399,0.099293,-1.512722,-0.827481
1400,-0.158517,-1.250618,-0.355546
1401,-0.31683,-1.264961,-0.350143
1402,-0.363445,-1.130056,-0.523013
1403,0.006761,-0.679409,-0.248674
1404,0.456559,-0.428575,0.613421
1405,0.573361,0.160959,0.225079
1406,1.264215,1.928496,-0.137615
1407,2.01949,4.190323,0.199846
1408,0.504154,2.499425,0.16305
1409,1.198247,1.142997,0.503449
1410,1.720508,0.11607,0.179572
1411,1.419809,0.147536,0.229812
1412,-0.492202,-0.07436,0.757351
1413,-0.443752,-0.091313,0.794452
1414,-1.516815,-0.61471,1.369136
1415,-2.120879,-1.079225,2.309014
1416,-2.154077,-1.119427,2.250423
1417,-1.833031,-0.2044,0.617905
1418,0.351757,0.149082,-0.897709
1419,0.350905,0.130355,-0.922558
1420,1.616478,0.139369,0.320342
1421,-0.368459,-0.417941,1.966611
1422,-0.391752,-0.395611,1.95917
1423,-0.178235,0.774038,1.586786
1424,-1.201763,-0.524436,1.078302
1425,-0.717828,0.339492,1.227334
1426,0.059264,1.579348,0.371672
1427,0.403828,1.633771,0.658323
1428,0.942894,1.147797,0.67689
1429,2.505562,0.601801,0.44244
1430,2.19437,0.031489,-0.561713
1431,1.19397,0.115071,-0.476933
1432,-0.267528,-0.065759,-0.030878
1433,-1.285003,0.169734,-0.548143
1434,-0.286291,-1.106915,-0.469074
1435,0.059587,-1.427085,-0.730169
1436,-0.055818,-1.207819,-0.368081
1437,-0.206499,-1.372448,-0.394245
1438,-0.32928,-1.415493,-0.5081
1439,-0.035254,-0.95883,-0.272701
1440,0.118007,-0.783701,0.230814
1441,0.586743,-0.032098,0.393171
1442,1.113497,1.377985,0.216239
1443,1.686236,2.756583,-0.275301
1444,0.48498,2.904152,0.047536
1445,0.72814,1.470174,0.25082
1446,1.266419,0.872054,0.26475
1447,1.380762,-0.105709,0.319496
1448,0.305888,-0.106018,0.404926
1449,-0.522265,-0.127004,0.750487
1450,-1.193541,-0.47009,1.08833
1451,-1.612989,-0.643627,1.379154
