,userAcceleration.x,userAcceleration.y,userAcceleration.z
0,0.163869,4.543409,0.995865
1,-1.087771,2.011521,0.340325
2,-0.831263,1.449766,-0.226124
3,-0.564722,0.979493,-0.54769
4,0.53479,0.136451,0.365721
5,0.434027,-0.099988,0.578342
6,0.468832,-0.243554,0.628278
7,-0.195146,-1.497049,1.175711
8,0.183948,-2.133456,1.243981
9,0.543384,-1.937715,1.247881
10,-0.012954,-1.155095,0.488434
11,-0.429158,-0.760636,-0.070329
12,-0.504494,-0.563773,-0.397163
13,0.208148,-0.005826,-0.731665
14,0.255006,-0.169793,-0.493689
15,0.362323,-0.26218,0.073554
16,0.005613,-1.426357,2.504756
17,-3.978148,1.614536,-6.339136
18,-3.941221,1.626396,-6.29315
19,1.437091,0.537912,2.255643
20,0.152265,0.522491,1.29146
21,-0.693783,1.454814,1.867928
22,-0.371378,2.642782,-0.099788
23,1.130078,2.012053,-0.409852
24,0.999306,1.826742,-0.471577
25,-1.232562,0.754765,-1.430994
26,-0.148128,0.098184,-0.792984
27,0.422643,-0.194542,-0.550878
28,0.987875,-1.136106,-1.083261
29,0.748966,-0.563134,-0.930934
30,0.521994,-0.689888,-0.462793
31,0.183426,-1.102944,-0.628191
32,0.078859,-0.673026,-0.80803
33,0.138735,-0.645924,-0.633646
34,0.08376,-0.722972,-0.492757
35,-0.166323,-0.574187,-0.364521
36,-0.193067,-0.244986,-0.015361
37,0.680349,2.098724,0.680889
38,-0.761693,4.578863,0.300091
39,-1.084595,3.282717,0.073818
40,-0.68678,1.520546,-0.014894
41,0.020555,1.042584,0.019278
42,0.340297,0.785609,0.468785
43,0.642783,-0.126325,0.72283
44,-0.074606,-0.693838,0.562442
45,-0.444454,-1.13088,0.707537
46,-0.00161,-2.347339,1.43573
47,0.438784,-2.073616,1.400033
48,0.494278,-1.621394,1.198098
49,-0.186358,-0.748942,0.014563
50,-0.375293,-0.27034,-0.971248
51,0.295231,-0.069938,-1.201705
52,0.127126,-0.12798,-0.700789
53,0.073416,-0.364375,-0.513196
54,0.363735,-0.992003,1.917568
55,-1.107944,-1.605726,1.667934
56,-0.980095,3.749891,0.719097
57,1.964764,2.150698,5.209301
58,0.293957,-0.228443,-0.221288
59,-1.001035,0.584012,1.74793
60,-1.213834,2.314052,0.869416
61,0.909784,2.527803,-0.365003
62,0.843039,1.673349,-0.459044
63,-0.477733,0.810739,-1.335629
64,-1.005215,0.319646,-1.238495
65,0.534893,-0.297992,-0.579991
66,0.816823,-0.80252,-0.866064
67,1.013091,-1.084018,-1.198939
68,0.300499,-0.729703,-0.349439
69,0.315325,-0.958896,-0.313035
70,0.450717,-1.086581,-0.523588
71,0.24629,-0.642909,-0.655594
72,0.173882,-0.705097,-0.460668
73,-0.020638,-0.730585,-0.375391
74,-0.195691,-0.051645,0.044183
75,-0.003348,0.486132,0.211388
76,0.368538,4.061728,0.632405
77,-1.017084,2.455102,0.175736
78,-1.138541,2.027663,0.1892
79,-0.739032,1.50885,0.238197
80,0.108477,0.834957,0.067681
81,0.548037,0.454146,0.37894
82,0.688091,-0.622052,0.32409
83,0.167106,-0.956104,0.705734
84,0.027144,-1.147805,0.977671
85,0.002025,-2.210087,1.436577
86,0.482772,-1.594731,1.441039
87,0.323151,-1.240329,0.943075
88,-0.484682,-0.489732,-0.671245
89,-0.193497,0.046331,-1.398711
90,0.072771,0.115704,-1.303232
91,-0.10607,-0.314347,-0.04656
92,-0.11125,-1.118186,1.580303
93,-0.449826,-1.728536,2.187449
94,-3.086059,0.927703,-4.557401
95,2.738079,2.477191,4.559622
96,2.203023,1.713119,2.375063
97,-0.774841,-0.551628,1.410216
98,-1.180046,1.45097,1.166077
99,-0.887245,2.600059,0.772334
100,1.795006,2.180232,-0.160742
101,0.474637,0.917474,-0.721594
102,-1.12083,0.486637,-1.256384
103,-0.310642,-0.158161,-0.716243
104,0.17015,-0.532182,-0.664419
105,0.733038,-1.144772,-1.044302
106,0.56129,-0.630586,-0.561151
107,0.406829,-0.772034,-0.464281
108,0.259291,-1.027258,-0.526545
109,0.173703,-0.664696,-0.763598
110,0.297216,-0.722998,-0.327486
111,0.301546,-0.76171,-0.236121
112,-0.234395,-0.566096,-0.682491
113,-0.192794,0.254018,0.040724
114,0.137389,0.804445,0.421493
115,-0.13208,4.316276,0.643982
116,-1.509918,2.245771,-0.10842
117,-1.369439,1.749511,0.407685
118,-0.734771,1.520001,0.083236
119,0.403119,0.67703,0.183587
120,0.776817,0.279074,0.428805
121,0.951706,-0.188376,0.544615
122,-0.200128,-1.186622,1.069424
123,-0.359252,-1.468641,1.324501
124,0.437275,-2.112714,1.433657
125,0.435519,-1.464285,1.036459
126,0.180616,-1.130524,0.653962
127,-0.647321,-0.427889,-0.608395
128,-0.194002,-0.049116,-1.242435
129,-0.027368,-0.085751,-1.121981
130,-0.016794,-0.328271,-0.0668
131,-0.202127,-0.721416,1.121913
132,-1.284178,-0.927791,1.459189
133,1.197151,1.230733,2.564549
134,1.865698,0.199365,2.530436
135,0.876953,0.08968,0.439534
136,-0.678182,1.249316,1.619853
137,-0.058762,3.007633,0.544297
138,0.614998,3.006397,-0.346714
139,0.418587,1.065395,-0.565587
140,-0.743689,0.577645,-1.147155
141,-1.058518,0.46903,-1.249396
142,-0.042159,-0.239126,-0.623708
143,0.550691,-0.934627,-0.763896
144,0.705631,-1.106034,-0.978724
145,0.221592,-0.804063,-0.718813
146,0.220439,-1.045076,-0.482558
147,0.189548,-0.879537,-0.64093
148,0.288956,-0.658768,-0.736474
149,0.192605,-0.703638,-0.617274
150,0.001658,-0.637386,-0.545423
151,-0.127177,0.137796,0.197485
152,0.64848,1.889844,0.303678
153,0.633657,1.885967,0.392426
154,-1.254174,2.766828,0.177402
155,-1.560259,1.967618,0.535105
156,-1.363968,1.7614,0.360281
157,0.157326,1.119007,0.279475
158,0.979386,-0.045049,0.531272
159,0.84055,-0.32285,0.500534
160,0.13155,-0.930997,0.739532
161,-0.277569,-2.215856,1.378877
162,0.007011,-2.413924,1.388154
163,0.562001,-1.80166,1.405688
164,-0.231839,-0.615783,-0.006532
165,-0.522928,-0.352373,-0.490661
166,0.136155,0.261156,-1.482093
167,0.166502,-0.043563,-0.87062
168,0.157659,-0.272481,-0.66871
169,-0.402332,-1.728806,3.282593
170,-3.829813,-1.483404,-2.429953
171,-3.698226,1.619354,-5.546523
172,2.246685,0.826678,2.478261
173,0.271295,0.318448,-0.981384
174,-0.136387,0.373423,0.436518
175,-0.437019,2.334303,0.981863
176,0.694494,2.341722,-0.619099
177,0.762975,1.662008,-0.550111
178,-0.762128,0.683537,-1.435418
179,-0.958554,0.354307,-1.148351
180,-0.415536,0.263804,-1.046283
181,0.737799,-1.156777,-0.749463
182,1.101752,-1.043471,-1.218651
183,0.975964,-0.579223,-1.065549
184,-0.082057,-0.997569,-0.46832
185,0.083861,-0.913622,-0.529917
186,0.158801,-0.723285,-0.732406
187,0.276304,-0.721933,-0.48964
188,-0.193707,-0.69178,-0.452362
189,-0.320407,-0.56929,-0.516909
190,0.17386,0.777352,0.339046
191,0.79059,1.443891,1.016339
192,1.254137,2.687692,1.359969
193,-0.813332,2.262702,-0.35067
194,-0.985595,1.82259,0.010393
195,-0.394785,1.031853,-0.264016
196,0.95355,0.031002,0.58455
197,1.046856,-0.04046,0.652757
198,0.379971,-0.294249,1.063965
199,-0.347229,-1.922006,1.553559
200,0.447858,-2.26843,1.597226
201,0.673002,-1.888457,1.299909
202,0.166794,-1.094888,0.381378
203,-0.43368,-0.178643,-0.992551
204,-0.131981,-0.080675,-1.289691
205,0.27052,-0.118163,-0.921698
206,0.463528,-0.592784,0.303217
207,0.256743,-0.999983,1.121166
208,-3.911691,-0.011399,-3.399699
209,1.477327,2.194259,3.306254
210,2.333757,0.529504,3.428989
211,-0.142855,-0.036455,0.084691
212,-0.684343,2.160949,1.704787
213,-0.541246,2.770742,1.108733
214,1.033008,1.902943,-0.184819
215,0.219522,1.11249,-0.361336
216,-0.450218,0.899657,-1.06666
217,-0.62388,0.301593,-1.170271
218,-0.003739,-0.075746,-0.565295
219,0.183198,-0.521867,-0.511921
220,0.682831,-1.041319,-1.442403
221,0.516026,-0.521962,-0.450396
222,0.390125,-0.842903,-0.271734
223,0.316224,-1.07031,-0.663953
224,0.31992,-0.606277,-0.76438
225,0.295446,-0.590207,-0.621371
226,-0.160673,-0.714675,-0.487683
227,-0.311158,-0.424856,-0.241794
228,-0.22528,0.065655,0.254558
229,0.511605,3.68148,0.547061
230,-0.380823,4.00853,0.332364
231,-1.117938,2.599422,0.098981
232,-1.209516,1.94569,0.18708
233,0.008124,1.359067,0.005402
234,0.885176,0.549033,0.607704
235,0.546517,-0.378646,0.284261
236,-0.168714,-0.91985,0.750028
237,-0.230477,-1.220685,1.009701
238,-0.245564,-1.986403,1.407411
239,0.107424,-2.407262,1.341225
240,0.335656,-1.446554,1.192151
241,-0.37524,-0.643104,0.123034
242,-0.351311,0.113412,-1.419299
243,0.14978,0.137823,-1.682191
244,0.559408,-0.456726,-0.105426
245,0.193727,-1.675994,2.677444
246,-0.636493,-2.263668,2.961729
247,-3.836352,0.442651,-6.384482
248,2.429384,2.851487,4.447301
249,0.715727,0.49951,0.27554
250,-0.756735,-0.283587,0.924598
251,-1.216136,2.315579,1.133593
252,-0.220162,2.893307,0.430727
253,1.482703,2.333552,-0.472042
254,-0.273953,0.547721,-0.98151
255,-0.789309,0.310385,-1.223204
256,-0.310506,0.186285,-1.262811
257,0.439252,-0.754745,-0.582801
258,0.422847,-1.30081,-1.247763
259,0.661714,-0.565235,-1.341174
260,0.499443,-1.031103,-0.44164
261,0.428818,-1.193491,-0.576757
262,0.357442,-0.737446,-0.722419
263,0.248401,-0.641804,-0.407884
264,0.148867,-0.671182,-0.324074
265,-0.227339,-0.40555,-0.432746
266,-0.128076,0.51137,0.286627
267,0.288636,0.935464,0.864765
268,-0.917889,5.079364,0.118615
269,-1.331238,2.337359,0.180825
270,-1.230824,2.2638,0.593224
271,-0.248978,1.061323,0.094877
272,0.528101,0.110121,0.394521
273,0.760523,-0.329048,0.598474
274,0.395145,-0.406112,0.798111
275,-0.404197,-1.235898,1.105938
276,-0.584333,-1.63838,1.273575
277,0.435221,-2.190129,1.496503
278,0.515322,-1.341539,0.974025
279,0.15004,-0.947338,0.392583
280,-0.333205,0.179932,-1.53929
281,0.369884,0.298267,-1.345203
282,0.186017,0.162099,-0.821117
283,0.32454,-0.73779,1.018096
284,-0.285619,-2.066886,2.955125
285,-1.871868,-1.397729,0.403956
286,2.572768,1.449246,4.032178
287,0.368149,-0.579801,1.184604
288,-0.370565,-0.194324,1.083011
289,-1.123996,3.015018,1.149647
290,-0.076604,3.093578,0.621081
291,1.314594,1.963391,-0.236707
292,0.416966,1.182762,-0.219006
293,-0.983817,0.255615,-1.089694
294,-0.988438,-0.04248,-1.300436
295,-0.275375,-0.310146,-0.754819
296,0.547836,-0.918062,-0.570919
297,0.687241,-1.239778,-1.006368
298,0.49377,-0.809813,-1.232031
299,-0.168844,-1.024284,-0.321935
300,-0.098865,-1.126737,-0.388748
301,0.067825,-0.812943,-0.574887
302,0.521057,-0.692443,-0.386277
303,0.428718,-0.7897,-0.348594
304,-0.037031,-0.787407,-0.342599
305,0.1222,0.511838,0.290065
306,0.583133,1.172958,0.96992
307,-0.461029,4.41989,0.43362
308,-1.103208,2.296685,0.009984
309,-1.476641,1.659175,0.741985
310,-0.475768,0.722906,0.13582
311,0.356165,0.048997,0.294253
312,0.629403,-0.071417,0.52107
313,0.722252,-0.229663,0.726011
314,0.144595,-0.767217,0.853052
315,-0.110773,-1.095966,0.915196
316,-0.335805,-2.135418,1.05517
317,0.213017,-1.650789,1.125921
318,0.336755,-1.265483,0.811974
319,0.13851,-0.490249,-0.288186
320,-0.201189,0.129607,-1.731111
321,-0.048199,0.439888,-1.691429
322,-0.184735,-0.192743,-0.651473
323,-0.335892,1.087703,0.440214
324,-1.148586,1.94175,2.642485
325,-0.4625,0.050352,1.204421
326,0.121157,-1.395652,1.678675
327,0.360928,-1.291025,2.200807
328,-0.44928,3.00881,0.326752
329,0.983603,1.702303,0.380737
330,0.544678,0.423314,0.521195
331,-0.417769,1.065889,-0.115521
332,-0.663608,1.270307,-0.520747
333,-0.810927,0.747761,-0.878039
334,0.197305,0.499555,-0.687975
335,0.440311,0.290817,-0.501567
336,0.657561,-0.34832,-0.471954
337,0.307606,-0.886422,-0.547552
338,0.193532,-0.878334,-0.47062
339,0.230689,-0.907375,-0.408175
340,0.2508,-0.977035,-0.160836
341,0.051213,-0.855856,-0.38961
342,-0.006237,-0.811661,-0.293091
343,-0.139134,-0.774269,0.001698
344,-0.389243,-0.595615,0.109367
345,-0.313508,-0.369001,0.185893
346,0.075457,0.234391,0.00751
347,0.949675,2.039149,0.332752
348,1.246512,2.714118,0.384133
349,0.103022,2.426678,0.748428
350,-1.136682,1.20928,0.450299
351,-0.918843,0.907833,0.508204
352,-0.113808,0.67722,0.355002
353,-0.072037,0.610745,0.530573
354,-0.113671,0.362943,0.54953
355,-0.134934,-0.586284,0.447526
356,-0.053306,-0.800772,0.541108
357,-0.160342,-1.048349,0.606755
358,-0.228662,-1.0064,0.63369
359,-0.118782,-0.964242,0.614185
360,-0.098677,-0.879922,0.563757
361,-0.122333,-0.702805,0.279175
362,-0.215325,-0.482798,0.186661
363,-0.278983,-0.359258,0.174204
364,-0.340072,-0.284003,0.064127
365,-0.239313,-0.222606,0.388667
366,-0.123272,0.103283,0.65164
367,0.640912,1.505367,0.571091
368,-0.052538,1.362954,0.215627
369,-0.885317,1.200493,-0.024188
370,-0.342311,-0.081367,0.93024
371,0.022871,-0.377212,1.20053
372,-0.053483,0.092889,1.076787
373,0.622376,1.150714,0.2957
374,0.37892,0.571395,0.428925
375,-0.031875,0.398781,0.342165
376,-0.664684,0.295719,0.063926
377,-0.513305,0.067382,0.032306
378,-0.326613,0.022423,0.010697
379,-0.046814,-0.110958,0.134911
380,-0.025533,-0.281172,0.174632
381,-0.061944,-0.310899,0.12926
382,-0.056593,-0.376741,0.105393
383,-0.185837,-0.430202,0.150834
384,-0.293832,-0.499293,0.258297
385,-0.461483,-0.596276,0.38543
386,-0.630812,-0.646615,0.43879
387,-0.794201,-0.523826,0.535841
388,-0.570122,-0.2572,0.451056
389,-0.081432,0.672182,0.300715
390,0.064831,0.947801,0.243125
391,0.059089,0.45396,0.30833
392,-0.078735,0.305789,-0.124884
393,-0.150388,0.377712,-0.276915
394,-0.214984,0.796352,-0.340779
395,-0.24458,0.604735,-0.271806
396,-0.306623,0.389391,-0.198891
397,-0.33578,-0.06148,0.112501
398,-0.287934,-0.154843,0.13053
399,-0.144771,-0.144561,0.153847
400,0.260406,-0.233543,-0.097044
401,0.304001,-0.458198,-0.139013
402,0.214863,-0.746805,-0.140445
403,0.070918,-0.88335,-0.160512
404,-0.042697,-0.978265,-0.239264
405,-0.230746,-1.00869,-0.352344
406,-0.380233,-1.0526,-0.468339
407,-0.285785,-0.848468,-0.401357
408,-0.008391,-0.42209,-0.227405
409,-0.043204,0.104312,-0.180728
410,-0.455698,1.453735,-0.255299
411,-0.494931,1.826108,-0.23236
412,0.23065,0.321587,0.209015
413,-0.103487,0.2808,0.137898
414,-0.234282,0.419546,0.113954
415,-0.09708,0.819468,0.075127
416,-0.031215,0.810486,0.088856
417,-0.027519,0.654287,0.000978
418,0.137409,0.75084,0.021411
419,0.463407,0.809123,-0.026028
420,0.682766,0.929767,-0.252568
421,0.039327,0.870281,-1.133487
422,-0.204301,0.725823,-1.429463
423,-0.319738,0.566409,-1.625172
424,-0.015013,0.086394,-0.95927
425,0.120274,-0.46666,-1.299462
426,0.111694,-0.674025,-1.518202
427,0.43818,-0.606952,-1.171349
428,0.625195,-0.831339,-0.527691
429,0.491583,-0.909858,-0.72802
430,-0.086384,-0.649158,-0.95677
431,-0.468791,-0.538493,-0.647617
432,-0.502078,-0.017479,-0.535789
433,-0.407675,0.711596,-0.505746
434,0.171165,1.804744,0.49691
435,0.098369,3.754455,-0.354621
436,0.49202,2.591712,-0.911674
437,-0.010247,1.869727,-0.344574
438,-0.226218,0.843767,0.19369
439,0.04164,0.040423,0.197217
440,-0.004912,-0.563071,0.366159
441,-0.100687,-0.702808,0.421879
442,-0.04677,-1.037981,0.698034
443,0.203913,-1.766568,1.041647
444,0.350538,-1.826602,1.094219
445,0.316687,-1.671291,0.913995
446,0.008812,-0.897982,0.006142
447,-0.16778,-0.692522,-0.424068
448,0.504064,0.340537,-1.74266
449,0.441434,0.43688,-1.392282
450,0.462464,-0.349124,-0.508582
451,-1.066063,-1.880149,1.771386
452,-2.713099,-1.484166,-1.921205
453,-0.282243,3.537786,1.508547
454,1.36506,0.086226,0.388561
455,0.681012,-0.187568,-1.018933
456,-0.994755,1.191985,0.412292
457,0.006823,2.262004,0.421214
458,0.919564,1.603379,-0.136917
459,0.720464,1.337885,-0.22094
460,0.238443,1.156824,-0.431508
461,-0.172799,0.759163,-0.971663
462,-0.306342,0.426332,-1.291792
463,-0.037453,-0.064549,-1.053583
464,0.543203,-0.353171,-0.567195
465,0.604311,-0.655718,-0.697866
466,0.603533,-0.906606,-1.433791
467,0.384633,-0.779698,-0.618293
468,0.280613,-0.842784,-0.498451
469,0.004206,-0.755215,-0.87449
470,0.184673,-0.615095,-0.64674
471,0.174977,-0.633195,-0.60774
472,-0.00912,-0.552139,-0.553279
473,-0.070873,0.079762,-0.138071
474,0.394144,1.128012,0.353243
475,0.136134,3.440404,0.357945
476,-0.188107,2.256065,-0.158042
477,-0.157168,1.955075,-0.010509
478,-0.554221,1.592685,-0.423523
479,0.182737,0.991892,0.008417
480,0.398485,-0.028658,0.104358
481,0.19982,-0.405314,0.449447
482,0.007197,-0.682505,0.623268
483,-0.301895,-1.298927,0.814397
484,-0.111555,-2.043237,1.003502
485,0.258152,-1.920115,0.893419
486,0.309034,-1.261016,0.472578
487,-0.284391,-0.493962,-0.737965
488,-0.140889,-0.312804,-1.03709
489,0.344762,-0.232127,-1.056549
490,0.184589,-0.401252,-0.726838
491,0.15376,-0.580799,-0.431738
492,0.224681,-1.062571,1.168276
493,-0.548065,-2.1683,1.891339
494,-4.257563,-1.040562,-5.561975
495,1.960258,4.07657,5.962486
496,0.322548,0.356413,-3.586135
497,-0.674247,-0.23366,2.921723
498,-0.758627,0.513972,1.552188
499,-0.497211,2.570966,0.452408
500,1.39461,2.330066,-0.798048
501,0.674582,1.069084,-1.061967
502,-1.124823,0.358992,-1.408103
503,-0.169053,-0.012676,-1.083302
504,0.220169,-0.320547,-0.849034
505,1.105616,-0.93412,-1.275195
506,1.219527,-0.425767,-0.701816
507,0.978563,-0.590542,-0.456521
508,0.17076,-0.925587,-1.037961
509,0.026184,-0.509254,-0.960859
510,0.039087,-0.543251,-0.778722
511,-0.17771,-0.687449,-0.647838
512,-0.355155,-0.549889,-0.738551
513,-0.328059,-0.474531,-0.679517
514,0.267439,0.971797,0.41892
515,0.711312,3.628879,0.772618
516,-0.147056,5.287541,0.512712
517,-0.881961,1.959189,0.103564
518,-0.434002,1.487141,-0.369799
519,-0.26235,1.077739,-0.278753
520,0.594599,-0.178555,0.122279
521,0.4563,-0.143043,0.131246
522,0.36928,-0.23606,0.339287
523,-0.14013,-1.889249,1.064858
524,-0.029617,-2.109824,1.113389
525,0.426748,-1.995009,0.92948
526,0.186228,-0.888533,0.55922
527,-0.089991,-0.684199,0.154154
528,-0.651613,-0.346924,-0.87772
529,0.042696,0.060589,-1.69746
530,0.236359,-0.073695,-1.051945
531,0.39799,-0.422728,-0.482827
532,0.124148,-1.315027,2.693424
533,-3.510811,0.125474,-3.245127
534,1.404981,2.045983,3.61417
535,1.171237,-0.617034,1.398952
536,-0.564444,-0.159719,0.583878
537,-1.516608,1.156477,0.621571
538,-0.373341,2.467477,0.991032
539,1.362168,2.425258,-0.422285
540,0.852949,1.658184,-0.566647
541,-0.172833,0.886669,-1.403125
542,-0.290696,0.458565,-1.562663
543,0.407335,0.235961,-0.960323
544,0.441656,-0.748934,-0.904025
545,0.714219,-0.630113,-1.394197
546,0.621655,-0.459495,-0.919967
547,0.280017,-1.104161,-0.662687
548,0.385553,-0.807974,-0.729191
549,0.498569,-0.692185,-0.843706
550,0.333083,-0.591227,-0.742839
551,-0.086182,-0.603322,-0.716945
552,-0.246857,-0.436966,-0.557614
553,0.378161,1.299837,0.611836
554,-0.12603,4.611416,0.338867
555,-0.982835,3.710695,0.049644
556,-1.014353,1.747435,0.109757
557,-0.826448,1.432892,0.047067
558,-0.358841,1.29646,0.027142
559,1.009078,-0.028122,0.496968
560,0.774968,-0.559261,0.272748
561,0.424804,-0.78064,0.314241
562,-0.415712,-1.707625,0.883586
563,-0.351814,-2.337233,0.937039
564,-0.010451,-2.273767,0.937144
565,0.030428,-0.752281,0.178078
566,-0.5755,-0.186532,-0.762453
567,-0.476703,0.037969,-1.273906
568,-0.027608,-0.045466,-1.171494
569,-0.026181,-0.245217,-0.970632
570,0.457011,-0.641356,0.236058
571,-3.533196,0.21939,-3.152587
572,-2.113817,3.341944,-2.174083
573,1.938016,-0.059794,2.413924
574,-0.220609,-0.550613,1.21808
575,-1.003217,0.215445,0.541498
576,-1.320127,2.348346,0.828849
577,0.69895,3.013931,-0.081573
578,1.08617,1.951738,-0.283898
579,0.258916,1.209235,-0.587064
580,-0.82195,0.576907,-1.450049
581,-0.661587,-0.076907,-1.383366
582,0.192882,-0.194426,-0.738873
583,0.683094,-0.943816,-0.667048
584,0.862628,-0.944424,-1.106428
585,0.658041,-0.556716,-1.130585
586,-0.089201,-0.890507,-0.769474
587,-0.065498,-0.827321,-0.719936
588,0.459713,-0.683771,-0.802697
589,0.746504,-0.640163,-0.667133
590,0.455923,-0.709666,-0.597643
591,-0.094178,-0.594682,-0.761635
592,0.199824,0.787612,-0.036376
593,0.731126,1.379885,0.675303
594,0.660109,4.986295,0.976389
595,-1.219205,2.11464,0.162695
596,-1.395404,1.811908,0.739242
597,-0.980868,1.151899,-0.142085
598,0.240441,-0.076081,-0.031336
599,0.481046,-0.345671,0.153324
600,0.750056,-0.158387,0.514676
601,-0.086397,-1.312859,0.80758
602,-0.339026,-2.131731,1.241078
603,-0.001884,-2.350217,1.434122
604,0.664379,-1.26503,0.747184
605,-0.123867,-0.587969,-0.454585
606,-0.661348,-0.298586,-1.033313
607,0.012231,-0.179647,-1.278622
608,-0.00238,-0.44007,-0.450115
609,-0.038713,-0.488267,-0.286789
610,-0.352661,-0.645047,1.42719
611,-2.203018,-0.082649,0.527772
612,0.360931,2.505892,1.400071
613,0.798031,-1.503771,1.546313
614,-1.399479,1.243624,0.212764
615,-1.130487,2.033419,0.586128
616,0.721204,3.376443,0.644365
617,1.365696,2.112337,-0.482489
618,0.514251,1.369802,-0.352343
619,-0.088604,0.778535,-1.003266
620,-0.610474,0.1222,-1.528446
621,-0.414528,-0.113545,-0.958969
622,0.215192,-0.570568,-0.783494
623,0.425195,-0.938301,-1.314129
624,0.186521,-0.919594,-1.068149
625,0.181081,-0.883672,-0.553546
626,0.313381,-0.917783,-0.730299
627,0.459741,-0.615462,-0.842655
628,0.533967,-0.640279,-0.636031
629,0.23647,-0.738043,-0.625198
630,-0.061866,-0.571971,-0.674758
631,0.117203,0.644869,-0.075773
632,0.468377,1.15429,0.42507
633,0.41505,4.633122,1.146535
634,-0.699442,1.914175,0.085231
635,-0.821316,1.652542,0.21355
636,-0.531573,1.300452,0.138903
637,0.231258,-0.184591,0.195123
638,0.22806,-0.456186,0.101288
639,0.314286,-0.52304,0.802236
640,-0.209781,-1.311474,0.894935
641,-0.561807,-1.836798,0.910843
642,0.123577,-2.195909,0.883301
643,0.516839,-1.200354,0.75527
644,0.395147,-0.890496,0.439622
645,-0.420623,-0.060525,-0.816164
646,0.142292,-0.008352,-1.406393
647,0.314337,-0.264298,-0.834522
648,0.288321,-0.453868,-0.595153
649,0.424453,-1.108013,1.303565
650,0.042045,-1.614898,2.080974
651,-4.453838,2.431001,-5.503054
652,2.976205,1.946915,4.36817
653,1.77846,1.034538,1.63956
654,-1.078016,-0.218512,1.665631
655,-1.545792,1.724338,0.85874
656,0.43552,2.6307,-0.274124
657,1.535824,2.601726,-0.432927
658,0.391651,1.12284,-0.817869
659,-0.877307,0.297545,-1.456515
660,-0.585556,0.104581,-1.415768
661,0.233394,-0.386486,-0.71702
662,0.685604,-0.96167,-1.25648
663,0.692125,-0.615657,-1.098346
664,0.465638,-0.782383,-0.546151
665,0.232412,-1.171518,-0.851638
666,0.285824,-0.672867,-0.796065
667,0.448116,-0.691383,-0.656764
668,0.155338,-0.75761,-0.633062
669,-0.288253,-0.546909,-0.662339
670,-0.474052,-0.259111,-0.483409
671,-0.021635,0.878854,0.379877
672,0.582414,3.14096,0.504983
673,-1.2363,4.203093,-0.188693
674,-0.768462,1.67292,-0.134252
675,-0.726033,1.391281,0.08826
676,-0.098327,0.895252,0.248267
677,0.18406,-0.000195,0.350807
678,0.3948,-0.311098,0.28017
679,-0.167446,-1.368442,0.805954
680,-0.339033,-1.893914,0.849144
681,-0.202745,-2.454995,1.001803
682,0.555053,-1.26364,0.784927
683,0.326854,-0.868801,0.362706
684,-0.333992,-0.331934,-0.65788
685,0.08614,-0.016659,-1.178478
686,0.021013,-0.123859,-1.091783
687,-0.103142,-0.570811,-0.642217
688,0.149974,-1.306754,1.971702
689,-1.383896,-1.739201,0.926848
690,-2.65263,2.841936,-0.930984
691,2.874272,1.134831,3.873137
692,1.804884,1.098011,1.162534
693,0.107242,0.231219,-0.450721
694,-1.105166,2.086786,0.763138
695,-0.315026,2.597152,-0.288582
696,1.010979,1.921816,-0.487698
697,-0.819417,0.529312,-1.268072
698,-0.845475,0.373401,-1.446346
699,0.094796,0.109571,-0.923017
700,0.744008,-0.622281,-0.812677
701,0.928511,-1.036971,-1.040523
702,0.749173,-0.558682,-0.936006
703,0.15748,-0.808591,-0.689841
704,0.046795,-1.100298,-0.58487
705,0.059366,-0.72522,-0.80699
706,0.130467,-0.629271,-0.776572
707,0.13086,-0.670244,-0.588324
708,-0.129034,-0.565286,-0.638936
709,-0.096938,-0.015767,-0.20432
710,0.6966,1.165058,0.837947
711,0.791048,4.851029,0.692709
712,-0.859962,2.326426,-0.293179
713,-1.370949,1.617547,0.30106
714,-0.884205,1.067309,-0.065968
715,0.075905,0.453641,-0.083911
716,0.945908,-0.105529,0.502095
717,0.886761,-0.193864,0.557156
718,0.184111,-1.007669,0.844913
719,-0.089132,-1.78607,1.119701
720,0.328134,-2.12909,1.010242
721,0.621377,-1.552423,0.722239
722,0.07513,-0.947845,-0.137249
723,-0.70781,-0.385143,-1.074213
724,-0.443302,-0.09751,-1.310772
725,0.061051,-0.372538,-0.704771
726,0.129104,-0.71516,0.000897
727,0.070453,-1.256173,1.443057
728,-0.461089,-1.559506,1.795426
729,-0.065636,3.276984,3.974518
730,1.306925,0.602014,1.487224
731,0.80445,-0.155097,-0.388076
732,-0.919508,1.237433,1.859978
733,-0.410726,2.618196,0.112194
734,0.930656,2.609921,-0.30871
735,1.390599,1.828097,-0.317233
736,-0.673959,0.703482,-1.294341
737,-1.183622,0.38923,-1.584087
738,-0.128177,-0.013352,-0.880132
739,0.58019,-0.858321,-0.712119
740,0.926384,-1.046687,-1.433257
741,0.934614,-0.332781,-0.808643
742,0.427598,-0.929577,-0.612047
743,0.110901,-0.988388,-0.763298
744,0.206124,-0.690271,-0.765039
745,0.30393,-0.693142,-0.596729
746,0.010222,-0.548704,-0.592484
747,-0.090795,-0.32945,-0.398767
748,0.148898,0.542739,0.0418
749,0.686063,1.833775,0.409901
750,-0.500856,4.289356,0.027354
751,-0.730284,2.235896,0.093129
752,-0.615974,1.685449,-0.020118
753,-0.098507,1.047095,-0.21665
754,0.61367,0.328047,0.479098
755,0.637606,-0.207088,0.377827
756,0.096188,-0.625743,0.581807
757,-0.249513,-1.235644,0.869945
758,-0.360516,-1.895812,0.957459
759,0.106516,-2.205605,0.894737
760,0.317608,-1.428141,0.727765
761,0.020799,-0.940975,-0.046848
762,-0.318166,-0.412212,-0.948866
763,0.175901,0.015361,-1.486047
764,0.247696,0.068331,-1.076377
765,0.319214,-0.118737,-0.523928
766,0.368414,-1.243076,2.682303
767,-3.430435,-0.476624,-2.130226
768,1.318942,2.911788,4.033902
769,0.879293,-0.538981,0.696149
770,0.064447,-0.278443,0.417368
771,-1.289348,2.339549,1.07357
772,0.729802,2.242162,-0.379812
773,1.165904,1.995838,-0.663787
774,0.230254,1.270661,-0.59922
775,-0.778991,0.263182,-1.255681
776,-0.614432,0.029235,-1.237269
777,0.432755,-0.193319,-0.34007
778,0.77838,-1.084528,-0.902656
779,0.848757,-1.206748,-1.211848
780,0.216566,-0.67023,-1.036856
781,-0.31698,-0.99608,-0.731725
782,-0.044765,-0.8098,-0.582582
783,0.405829,-0.597725,-0.702581
784,0.439174,-0.60081,-0.677967
785,0.014891,-0.463859,-0.36257
786,-0.020978,0.402333,0.031308
787,0.557589,1.167269,0.255963
788,0.492917,2.567957,0.138633
789,-0.783678,3.574049,-0.029984
790,-0.880728,1.883483,0.050295
791,-0.314138,1.306444,-0.178042
792,0.690376,0.773222,0.351726
793,0.799722,-0.170085,0.381006
794,0.516802,-0.432644,0.498315
795,-0.185582,-1.037718,0.838673
796,-0.471141,-1.685272,1.040956
797,-0.171916,-2.384396,1.085742
798,0.225016,-1.728291,0.82192
799,-0.028328,-1.031839,0.177773
800,-0.20309,-0.543113,-0.476888
801,0.038036,-0.186107,-1.171666
802,0.259219,-0.09252,-1.014699
803,0.054415,-0.216577,-0.531791
804,0.204037,-0.382645,-0.255205
805,-0.150851,-1.190288,3.013398
806,-4.004581,2.372573,-5.803208
807,1.21223,0.945737,3.470479
808,0.697665,-0.581928,0.852891
809,-0.074598,-0.089508,1.06521
810,-0.828495,2.575647,0.901786
811,1.067755,2.811505,-0.108168
812,1.105612,1.715947,-0.387412
813,-0.0859,1.039246,-0.698644
814,-1.026788,0.340491,-1.674557
815,-0.784387,0.17508,-1.38952
816,0.154511,-0.085007,-0.608604
817,0.577656,-1.129113,-1.195751
818,0.791813,-0.841797,-1.189885
819,0.41713,-0.908398,-0.490431
820,0.175308,-1.176057,-0.80389
821,0.055622,-0.847546,-0.880312
822,0.069319,-0.675343,-0.608976
823,0.005091,-0.807735,-0.464368
824,-0.131117,-0.582168,-0.707256
825,-0.01112,0.245996,-0.128191
826,0.71903,1.123905,0.618976
827,0.938937,2.439406,0.578395
828,-0.714797,4.493784,-0.021642
829,-1.18397,1.904616,0.062304
830,-0.745172,1.632472,0.012996
831,0.386701,0.467722,0.18773
832,0.689664,-0.413258,0.229946
833,0.512214,-0.444783,0.277128
834,-0.025916,-0.831567,0.655406
835,-0.193261,-1.452231,0.938303
836,-0.137135,-2.095997,0.990528
837,0.334263,-1.79835,1.068404
838,0.313008,-1.153642,0.493609
839,-0.358904,-0.588595,-0.582879
840,-0.60377,-0.241099,-1.102868
841,0.142167,0.15847,-1.322974
842,0.290694,-0.304123,-0.695356
843,0.522569,-0.965436,1.518553
844,-0.424555,-2.576847,2.625444
845,-4.2644,-1.341766,-5.133363
846,3.064637,4.832765,6.904712
847,1.548261,1.331411,-0.55605
848,-0.46889,-0.687935,0.822841
849,-1.01953,-0.204459,2.352334
850,-1.1837,2.462295,-0.454865
851,1.430163,2.782106,-0.415222
852,1.232316,1.632213,-0.678693
853,-0.288068,0.666263,-0.889198
854,-0.977676,0.087439,-1.347104
855,-0.21872,-0.140053,-1.236375
856,0.723774,-0.455808,-0.46244
857,1.052484,-1.214119,-0.168159
858,1.005664,-1.142281,-1.219186
859,0.433577,-0.635918,-1.191878
860,-0.654572,-1.064165,-0.617992
861,-0.617427,-0.956917,-0.68523
862,0.064296,-0.604574,-0.590734
863,0.307499,-0.555006,-0.579636
864,0.263604,-0.350673,-0.43428
865,0.350031,0.944501,0.301058
866,0.483938,1.706342,0.290183
867,-0.451428,4.027774,0.14367
868,-0.662904,1.962902,0.198027
869,-0.832262,1.698148,0.180605
870,-0.418879,1.236788,-0.210246
871,0.775381,0.501216,0.487941
872,0.560963,-0.12809,0.250511
873,0.034789,-0.767627,0.542157
874,-0.380257,-1.42055,0.841331
875,-0.425655,-1.985905,1.018759
876,0.045861,-2.099776,0.984431
877,0.137382,-1.402298,0.496946
878,-0.056999,-0.82079,-0.032877
879,-0.212251,-0.324602,-0.77807
880,0.13917,-0.044831,-1.106157
881,0.08493,-0.178169,-0.855842
882,-0.022792,-0.455889,-0.594708
883,0.305154,-0.86194,0.837571
884,-0.453846,-1.510012,2.627584
885,-2.693721,3.822513,-3.750726
886,1.703064,1.260491,3.726273
887,0.622621,-0.291603,-0.510035
888,-0.405865,0.009099,1.607172
889,-1.221317,1.828907,1.067866
890,0.726871,2.37313,-0.157649
891,1.021265,1.702584,-0.377514
892,-0.078539,1.091447,-0.71364
893,-0.904051,0.275354,-1.261955
894,-0.586563,-0.117092,-1.353865
895,0.366023,-0.076227,-0.582684
896,0.564413,-0.955495,-0.668928
897,0.56185,-1.114559,-1.349725
898,0.720064,-0.331642,-0.811655
899,0.576895,-1.015571,-0.345605
900,0.220002,-1.132613,-0.724436
901,0.051771,-0.816191,-0.666179
902,0.143659,-0.706742,-0.447523
903,-0.052594,-0.677472,-0.362331
904,-0.24049,-0.476207,-0.365721
905,0.089515,0.566177,0.119265
906,0.897208,2.663687,0.48981
907,-0.662995,2.006868,-0.115324
908,-0.983248,1.899282,0.087581
909,-1.173864,1.881888,0.36684
910,0.077182,0.775929,0.176252
911,0.505256,0.391452,0.139624
912,0.051381,-0.287077,-0.035248
913,0.024176,-0.642645,0.603431
914,-0.056378,-0.985106,0.643916
915,-0.196353,-1.420957,0.635816
916,-0.101194,-1.775054,0.691224
917,0.065459,-1.464506,0.751425
918,0.239232,-0.974645,0.428081
919,-0.060198,-0.412833,-0.741048
920,-0.089077,-0.215551,-1.141854
921,0.157409,-0.171632,-0.752176
922,0.044134,-0.406011,-0.778913
923,0.383242,-1.142696,1.809198
924,-1.758762,-0.667152,1.326867
925,-0.064719,4.545658,1.529201
926,1.4038,1.974526,5.140007
927,0.04936,-1.100138,-0.417133
928,-0.462435,0.04621,1.805108
